Time (s),Acceleration x (m/s^2),Acceleration y (m/s^2),Acceleration z (m/s^2)
-0.00548,-1.046064973,4.259840012,9.272943497
0.00452,-1.181701303,4.393187523,9.74673748
0.01452,-1.192130446,4.518672466,9.836940765
0.024518437,-1.085655451,4.591331482,9.82900238
0.034518437,-0.91040951,4.662046909,10.00018787
0.044527812,-0.745669305,4.68072176,10.13471317
0.054518437,-0.63981688,4.611050129,10.17819118
0.064518437,-0.611622751,4.61362648,10.15375233
0.07452,-0.563288569,4.596704483,10.18685818
0.08452,-0.457330823,4.611414433,10.09952927
0.094518437,-0.397638589,4.664958,9.840112686
0.104518437,-0.281768799,4.708379269,9.654819489
0.114518437,-0.158160955,4.768378258,9.616875648
0.124518437,-0.081278354,4.773118496,9.631403923
0.134518437,0.035003226,4.720235348,9.552856445
0.14452,0.067784637,4.685825825,9.501974106
0.154518437,0.152951181,4.697126865,9.39874649
0.164518437,0.397954613,4.660591125,9.350746155
0.174518437,0.552390218,4.683681011,9.249136925
0.184518437,0.68891716,4.748975277,9.078353882
0.194518437,0.762668133,4.840060711,8.874893188
0.204518437,0.702908874,4.964290619,8.752388
0.21452,0.535592496,4.974537849,8.773561478
0.224518437,0.323274672,4.963764191,8.972884178
0.234518437,0.23238121,4.89727211,9.012972832
0.244518437,0.234535992,4.821730614,8.98717308
0.254518437,0.228876099,4.807011127,8.96035862
0.264518437,0.202424958,4.852452755,8.921667099
0.274518437,0.163045123,4.86140728,8.776453972
0.28452,0.098937988,4.898776054,8.685799599
0.29452,0.161225542,4.954963207,8.611157417
0.304518437,0.364004821,5.03964138,8.579324722
0.314518437,0.725711226,5.153777599,8.621434212
0.324518437,1.075781822,5.240620136,8.861650467
0.334518437,1.081393838,5.369447231,9.264401436
0.344518437,0.706595957,5.494578838,9.701515198
0.35452,0.292130917,5.542461872,9.912732124
0.36452,-0.000277727,5.525204182,10.07607365
0.374518437,-0.237361148,5.638057232,10.1909399
0.384518437,-0.443597674,5.756982327,10.17241669
0.394518437,-0.761892438,5.864376545,10.22129631
0.404518437,-0.468803823,6.035916328,9.925326347
0.414518437,0.115247287,6.075621605,9.813908577
0.42452,0.563279033,6.346635818,9.36887455
0.43452,1.099800467,6.100837708,9.180739403
0.44452,1.343357801,5.717803478,8.876358986
0.454518437,0.966778636,5.757604599,8.786931038
0.464518437,0.533313215,5.904129982,8.857118607
0.474518437,0.508298576,5.693804264,8.951844215
0.484518437,0.391097605,5.442480087,8.96821022
0.49452,0.135329857,5.278084278,8.792629242
0.50452,-0.107068695,5.130687714,8.656045914
0.51452,-0.353805542,5.015182018,8.560171127
0.524518437,-0.389115214,4.898124695,8.23494339
0.534518437,0.011903971,4.597307682,7.643536568
0.544518437,0.281989068,4.340371609,7.334722996
0.554518437,0.561813772,4.022929192,7.138494015
0.564516875,0.695755005,3.792376995,6.921818733
0.57452,0.587288082,3.61561799,7.063335419
0.58452,0.224777222,3.388197422,7.250102043
0.594518437,-0.337697357,3.059550285,7.426823139
0.604518437,-0.703512192,2.645468235,7.520551205
0.614518437,-0.781065166,2.046075106,7.505525112
0.624518437,-0.757764816,1.382881284,7.482722759
0.634518437,-0.586675167,0.810705364,7.596926212
0.64452,-0.520585597,0.341164142,7.698105335
0.65452,-0.640487254,0.087407514,7.621356487
0.664518437,-0.605895817,-0.14455232,7.741957188
0.674518437,-0.707448244,-0.337477088,8.194796562
0.684518437,-0.922600806,-0.609065711,8.505544662
0.694518437,-1.15767312,-0.981162965,8.881473541
0.704518437,-1.314914703,-1.203143716,8.851325035
0.71452,-1.278072715,-1.161331415,8.746038437
0.72452,-0.927523255,-1.031556129,8.660822868
0.734518437,-0.298786789,-0.927484989,8.364221573
0.744518437,0.332104504,-0.816250384,8.046126366
0.754518437,0.930702806,-0.703665435,7.871828556
0.764518437,1.480344415,-0.56361419,7.588977337
0.774518437,1.877647877,-0.425104856,7.245533943
0.78452,2.24912262,-0.228809059,7.075900078
0.79452,2.622129679,0.081929579,7.034710407
0.804518437,3.07810998,0.418784171,7.11061573
0.814518437,3.622676134,0.743131459,7.224743843
0.824518437,4.161084175,1.062345505,7.254478931
0.834518437,4.618797779,1.336146474,7.255063057
0.844518437,5.058277607,1.624733925,7.232997894
0.85452,5.622217655,1.883106589,7.201614857
0.864518437,6.080831528,2.28182745,7.448370934
0.874518437,6.482884884,2.652344465,7.44732666
0.884518437,6.978111267,2.993738413,7.311192513
0.894518437,7.273288727,3.299276829,7.303684235
0.904518437,7.406414986,3.575060129,7.254526615
0.914518437,7.58293438,3.914998531,7.01844883
0.92452,7.792187691,4.366152287,6.821875095
0.93452,8.177271843,4.900001526,6.810670376
0.94452,8.816398621,5.375959396,6.59073925
0.954518437,9.427159309,5.75387001,6.503647327
0.964518437,9.840083122,6.026147842,6.677610397
0.974518437,10.03164768,6.546273708,6.786756992
0.984518437,10.10808945,7.035265446,6.953412533
0.99452,10.16421986,7.304728031,7.144029617
1.00452,10.36825275,7.432166576,7.238064289
1.01452,10.92600727,7.451885223,7.171141148
1.024518437,11.54015732,7.578500271,7.377875805
1.034518437,12.22121239,7.803804398,7.653821945
1.044518437,12.95287132,8.241532326,7.831807137
1.054518437,13.34565353,8.79380703,7.907923222
1.064518437,13.51633263,9.197010994,7.777316093
1.07452,13.54515839,9.370407104,7.715105057
1.084518437,13.5303812,9.321708679,7.721166134
1.094518437,13.67504787,9.306127548,7.56294775
1.104518437,13.94975853,9.263214111,7.20682478
1.114518437,14.03198624,9.26057148,6.870190144
1.124518437,13.88884926,9.258319855,6.576747417
1.134518437,13.51438808,9.176994324,6.291885376
1.14452,13.02670765,8.975728989,5.991700172
1.154518437,12.42372322,8.686816216,5.661587715
1.164518437,11.91295433,8.317686081,5.534733295
1.174518437,11.41178989,7.999448776,5.479245186
1.184518437,11.05430698,7.724431992,5.233293533
1.194518437,10.78601265,7.472533226,4.697347164
1.204518437,10.4301672,7.136847019,4.265768051
1.214518437,9.932709694,6.830389023,4.024595261
1.22452,9.368376732,6.582551956,3.748141766
1.234518437,8.823437691,6.232395172,3.578641891
1.244518437,8.468933105,5.76684618,3.546205282
1.254518437,8.169399261,5.358893394,3.734437466
1.264518437,7.947207451,5.112807751,4.062634468
1.274518437,7.714366436,5.003718376,4.128197193
1.28452,7.48600769,4.927563667,3.85861969
1.29452,7.246874809,4.662161827,3.60893321
1.304518437,6.912778378,4.28496027,3.532108068
1.314518437,6.666079521,3.895404339,3.403989553
1.324518437,6.241501808,3.558932781,3.461364269
1.334518437,5.789275169,3.283743382,3.696886778
1.344518437,5.367704391,3.112011909,3.826058626
1.35452,4.973139763,2.902787447,3.970658779
1.364518437,4.781881332,2.738248348,4.223017216
1.374518437,4.674372196,2.641580105,4.513079643
1.384518437,4.688086033,2.547411442,4.708015442
1.394518437,4.643841267,2.346240997,4.94647789
1.404518437,4.453732014,2.061848164,5.145579815
1.414518437,4.21190834,1.810456991,5.292717934
1.42452,4.046267509,1.553827286,5.391407013
1.43452,3.809557915,1.39387548,5.413117409
1.44452,3.508118153,1.26294136,5.527205944
1.454518437,3.272260666,1.114433765,5.690452099
1.464518437,3.030590057,0.992722154,5.88744688
1.474518437,2.712448359,0.999521732,6.059494495
1.484518437,2.382517815,1.06445241,6.204027653
1.494518437,2.066033125,1.029181123,6.447690487
1.50452,1.772638083,0.868712127,6.836901188
1.51452,1.577367067,0.699805975,7.230326176
1.524521562,1.434998274,0.673871994,7.58364296
1.534518437,1.437852144,0.706145823,7.85610342
1.544518437,1.603090405,0.796263576,7.999190331
1.554518437,1.635546207,1.030253649,8.078256607
1.564518437,1.614237785,1.230724931,8.224561691
1.574524687,1.522693038,1.344296336,8.213806152
1.58452,1.341097713,1.339709044,8.208960533
1.594518437,1.129364014,1.235398412,8.199393272
1.604516875,1.021500468,1.099608898,8.27435112
1.614518437,1.052213311,0.811193824,8.365206718
1.624523125,1.200261116,0.492104203,8.570322037
1.634518437,1.05599618,0.443185866,8.700748444
1.64452,0.560444295,0.710388362,8.903039932
1.654518437,0.058983549,1.01801455,9.233391762
1.664518437,-0.286978573,1.23007369,9.600290298
1.67452,-0.334584892,1.375363469,9.849869728
1.684518437,0.138700888,1.360394955,10.2232132
1.694518437,0.697220266,1.331271887,10.72725868
1.704518437,1.092311382,1.506096482,10.98262501
1.71452,1.531771898,1.644720674,11.14057541
1.72452,1.579378128,1.849252582,11.29285526
1.734518437,1.394679904,2.166809797,11.25223064
1.744518437,1.241987348,2.484501362,11.09307384
1.754518437,1.150567055,2.74846673,11.02657223
1.764518437,1.206294537,2.978798628,11.0591917
1.774518437,1.512675762,3.204006672,11.0165844
1.78452,2.02733326,3.205050707,10.96397972
1.79452,2.439030647,3.024116039,11.10997677
1.804518437,2.284853697,3.200626135,11.21292877
1.814518437,1.888881445,3.578641891,11.23468685
1.824523125,1.446768165,3.81101346,11.258811
1.834518437,1.073167324,4.01611042,11.1848011
1.844518437,0.875406325,4.397937775,11.04884911
1.85452,0.827177525,4.751216412,10.92016506
1.864518437,0.821824074,4.842905045,10.88697052
1.874518437,0.835873246,4.767161846,10.87685871
1.884518437,0.781333327,4.695335865,10.94565773
1.894518437,0.493109763,4.723960876,11.19359112
1.904518437,0.038182728,4.989688396,11.58620358
1.914518437,-0.401699156,5.422828197,12.08431149
1.92452,-0.816039681,5.830225468,12.44034767
1.93452,-1.058160543,6.101938725,12.73081303
1.94452,-1.215536118,6.30392313,12.84594536
1.954518437,-1.410041094,6.514258862,12.88377476
1.964518437,-1.337314844,6.635970116,12.88929939
1.97452,-1.325372577,6.55591774,12.93288422
1.984518437,-1.37163806,6.57809782,12.89509487
1.994518437,-1.47013557,6.685664177,12.93152332
2.00452,-1.508854628,6.683787346,13.01024437
2.01452,-1.539519548,6.629209042,13.04438686
2.02452625,-1.552323699,6.50605154,12.97564411
2.034518437,-1.442152143,6.306623936,12.84670258
2.044518437,-1.232123137,6.004245758,12.56517315
2.054518437,-1.053257227,5.659700871,12.27383709
2.064518437,-1.02880764,5.327424049,11.93233681
2.074521562,-1.089534163,5.091805935,11.54708195
2.08452,-1.170065522,4.922861576,11.196455
2.094518437,-1.255471468,4.844954014,10.87502956
2.104518437,-1.310863733,4.877869606,10.54826832
2.114518437,-1.375918984,4.986623764,10.18616104
2.124516875,-1.488772035,5.093491554,9.853711128
2.134518437,-1.650380611,5.215777874,9.477380753
2.14452,-1.828346372,5.278879166,9.159086227
2.15452,-1.890624404,5.378995419,8.928015709
2.164518437,-1.931536555,5.537443638,8.662106514
2.174518437,-2.020658255,5.700910091,8.540194511
2.184518437,-2.117336035,5.711588383,8.465514183
2.194518437,-2.098307133,5.61992836,8.39495182
2.204518437,-2.017229795,5.42135334,8.360217094
2.21452,-1.888450503,5.243406773,8.366747856
2.22452,-1.905794024,5.183197498,8.539800644
2.234518437,-2.024287939,5.18903923,8.851018906
2.244518437,-2.18656683,5.181962013,9.098243713
2.254518437,-2.281674147,5.062979698,9.229866982
2.264518437,-2.297140598,4.813446522,9.131887436
2.274518437,-2.318018198,4.612841129,8.884692192
2.28452,-2.281875134,4.443130493,8.685828209
2.29452,-2.194228411,4.233724117,8.506444931
2.304518437,-2.015074968,4.011734009,8.268136024
2.314518437,-1.892261982,3.936622858,8.022807121
2.324518437,-1.891103268,3.986278534,7.971743107
2.334518437,-2.029871225,3.967919827,8.03644371
2.344518437,-2.109827995,3.732464552,8.120030403
2.35452,-1.988700509,3.281607628,8.092621803
2.36452,-1.688869834,2.748141289,7.897026062
2.37452,-1.370498419,2.377480507,7.700594902
2.384518437,-1.158448815,2.247839212,7.534379959
2.394518437,-1.050202131,2.215172768,7.436888218
2.404518437,-0.966644526,2.168773174,7.425663948
2.414518437,-0.771584153,1.963475108,7.560668468
2.42452,-0.443540215,1.689377427,7.575397491
2.43452,0.041448418,1.614994287,7.545843601
2.44452,0.44094491,1.772992492,7.652663231
2.454518437,0.800237954,1.991429806,7.781682014
2.464518437,1.07437408,2.186595678,7.76894474
2.474518437,1.31152451,2.347064495,7.586622715
2.484518437,1.560923696,2.427691698,7.360656738
2.494518437,1.892271638,2.421504974,7.024588585
2.50452,2.208689213,2.526495695,6.597528934
2.51452,2.470662832,2.699922085,6.171188831
2.524518437,2.696656227,2.783173084,5.783194065
2.534518437,2.871988535,2.843181372,5.336503029
2.544518437,3.058946848,2.899933577,5.020631313
2.554518437,3.355799198,2.923904419,4.872573853
2.564518437,3.601128101,2.901791573,4.71201849
2.57452,3.856934309,2.816931486,4.645354271
2.58452,3.997445107,2.756099463,4.664258957
2.594518437,4.102550507,2.672896147,4.578173161
2.604518437,4.191318035,2.560809374,4.508273125
2.614518437,4.397640705,2.56408453,4.612716675
2.624518437,4.665647507,2.591282606,4.745700359
2.634518437,5.076971531,2.535507441,4.925935745
2.64452,5.424466133,2.576218367,4.99919939
2.654518437,5.722045898,2.563289642,4.998661995
2.664518437,6.004791737,2.504229546,5.041882038
2.674518437,6.120431423,2.603081226,5.008641243
2.684518437,6.197802544,2.820120573,5.021368504
2.694518437,6.342134476,2.975714922,5.157359123
2.704518437,6.544329643,3.052511215,5.237679958
2.71452,6.688747883,3.109799623,5.424791336
2.72452,6.820457935,3.118648767,5.531802654
2.734518437,6.934584618,3.083703041,5.507966042
2.744516875,7.065959454,3.104187727,5.659164906
2.754518437,7.3745718,3.219549894,6.072097301
2.764518437,7.742273331,3.558597565,6.416805267
2.774518437,8.149441719,3.976002693,6.913745403
2.78452,8.567391396,4.335947037,7.264850616
2.794518437,8.87436676,4.60269928,7.388036728
2.804518437,9.082882881,4.777925968,7.335968971
2.814518437,9.285959244,4.844762802,7.11616087
2.824518437,9.488059044,4.998116016,6.870764732
2.834518437,9.484649658,5.37390995,6.894582272
2.844518437,9.552586555,5.672055244,7.10919857
2.85452,9.661657333,5.839515209,7.223259449
2.86452,9.779997826,5.915468693,7.355801582
2.87452,9.918755531,5.990368843,7.435701847
2.884518437,10.0428524,6.057761192,7.471269131
2.894518437,10.26309967,6.228323936,7.449663639
2.904516875,10.55773163,6.527608871,7.450381756
2.914518437,10.91176701,6.827592373,7.580943584
2.92452,11.1577177,7.147649288,7.651475906
2.934518437,11.27008247,7.399672508,7.642502308
2.94452,11.34756851,7.624489307,7.533699989
2.954518437,11.41456699,7.938358307,7.352334499
2.964518437,11.43260098,8.278172493,7.1538167
2.974518437,11.66031742,8.430540085,7.023505211
2.984518437,12.07688999,8.673301697,7.004552841
2.994518437,12.37415314,9.037210464,6.848556042
3.00452,12.57165527,9.340078354,6.63321209
3.01452,12.61122799,9.512125015,6.601656437
3.024518437,12.52937508,9.664865494,6.491954327
3.034518437,12.39757919,9.760996819,6.362504482
3.044518437,12.31733513,9.700022697,6.25819397
3.054518437,12.33176613,9.55411911,6.037323952
3.064518437,12.16546535,9.41527462,5.790491581
3.07452,12.01006222,9.330174446,5.457515717
3.08452,12.06423855,9.262955666,5.269906044
3.094518437,11.90574169,9.223527908,5.146958828
3.104518437,11.62228775,9.047208786,4.812278271
3.114518437,11.22443867,8.698967934,4.477942467
3.124518437,10.84974575,8.271986008,4.385248184
3.134518437,10.46884727,7.968544483,4.256488323
3.14452,10.13359261,7.645539284,4.44806242
3.15452,9.823630333,7.541782856,4.794723988
3.164516875,9.578904152,7.580281734,4.654768467
3.174518437,9.333939552,7.478776932,4.241299629
3.184518437,9.081465721,7.159227848,4.112012386
3.194518437,8.853462219,6.807021618,4.136816502
3.204518437,8.447202682,6.631833076,4.28745985
3.21452,8.075124741,6.26907444,4.944744587
3.22452,7.448092937,6.628423691,4.674630642
3.234518437,7.419306278,6.498649597,4.888921261
3.244518437,7.399835587,6.173879623,5.03428793
3.254516875,7.370080471,5.846697807,4.544989586
3.264518437,7.172319412,5.599874973,3.536513567
3.274518437,6.780148983,5.145895958,2.428103447
3.28452,7.075660706,4.547230721,2.098326206
3.294523125,6.19283247,5.219493389,2.007403851
3.304518437,5.738230705,5.245044708,2.265537262
3.314518437,5.547422409,4.703102589,2.441874981
3.324518437,4.910976887,4.384128094,2.076012135
3.334518437,4.553378582,3.739943981,1.913828969
3.344521562,4.340486526,3.186577082,1.708636284
3.35452,4.052559853,2.995854855,1.191785693
3.364518437,3.999523401,2.668232441,1.136326432
3.374518437,3.838527679,2.416237831,1.802029371
3.384518437,3.63978982,2.201650381,2.541215181
3.394523125,3.2055583,2.074910879,3.218573093
3.404518437,2.709086895,1.938039184,3.393876553
3.414518437,2.425287962,1.660953403,3.463902235
3.42452,2.230466843,1.737280607,3.414112329
3.43452,2.522722244,3.123245478,3.939342737
3.44452625,2.648025274,2.850028753,3.242591619
3.454518437,2.862986326,2.511546135,2.61598134
3.464518437,2.782167673,2.653349876,1.800085306
3.474518437,2.601366997,2.78794241,2.083328962
3.484518437,2.298950672,2.904453754,2.491961718
3.494518437,1.889321923,2.860860109,3.046755552
3.50452,1.713903546,2.717773199,3.730788469
3.51452,1.841763496,2.78285718,3.801733494
3.524518437,2.188654661,2.972956657,3.442047834
3.534518437,2.565205097,3.254332781,3.159895897
3.54452,2.750975847,3.580174208,3.467694521
3.554518437,2.43067956,3.803217888,4.181492329
3.564518437,1.960525513,3.729466915,5.007012844
3.57452,1.717255473,3.423612595,5.522666454
3.58452,1.575451732,3.303327799,5.679783821
3.594518437,1.863493323,3.197791338,6.026032925
3.604518437,2.354524851,3.265250444,6.751600742
3.614518437,2.559918642,3.646024227,7.66593647
3.624518437,2.149763107,4.357542515,7.785819054
3.634518437,2.116569996,4.630788326,7.596898556
3.644524687,2.43891573,5.256575108,7.92390728
3.65452,2.61098218,6.406308651,8.315340042
3.664518437,2.826393366,7.324753284,8.37834549
3.674518437,3.122651815,7.639226913,7.817872524
3.684518437,3.570568562,7.55033493,7.379475117
3.694524687,3.788402557,7.987736702,7.529390335
3.704518437,3.762114286,8.673962593,7.868811607
3.71452,3.527434587,9.487819672,8.088934898
3.724518437,3.676286936,10.00669003,8.673685074
3.734518437,3.914653778,10.4611578,10.23344994
3.744518437,3.668931961,11.26203728,11.47637558
3.754518437,3.727436781,11.47777462,12.09827423
3.764518437,3.889026165,11.19518089,12.31447029
3.774518437,3.577550173,11.13774014,12.36114883
3.78452,3.042168379,11.4092617,12.41214466
3.794521562,2.527874708,11.92360306,12.42080307
3.804518437,2.070199013,12.46632957,12.56413746
3.814518437,1.826498151,12.79187393,12.66810417
3.824518437,1.717255473,12.74061966,12.77531624
3.834518437,1.697259068,12.43911362,13.35147667
3.844518437,1.651558518,12.00028515,14.03005123
3.85452,1.460970521,11.45384216,14.49395084
3.86452,1.069853783,10.83407784,15.03494549
3.87452,0.612657011,10.20837784,15.24841309
3.884518437,0.207941204,9.568715096,14.90793705
3.894518437,-0.022189461,9.018526077,14.36182022
3.904518437,-0.122554392,8.579286575,13.99530506
3.914518437,-0.146103755,8.19776535,13.69141388
3.92452,-0.100795887,7.736326218,13.03183079
3.93452,-0.071031176,7.240132809,12.15776539
3.94452,-0.17242083,6.884364128,11.36700916
3.954518437,-0.520815492,6.585988998,10.67391586
3.964518437,-0.935165584,6.487970352,10.03678131
3.974518437,-1.116827965,6.614489555,9.57174015
3.984518437,-1.152463317,6.94224596,9.156356812
3.994518437,-0.981268287,7.211057663,8.832756042
4.00452,-0.757774413,7.34608078,8.77945137
4.01452,-0.514427722,7.589035034,8.150187492
4.024518437,-0.347092181,7.983829021,7.385566235
4.034518437,-0.462167114,8.384771347,7.214639187
4.044518437,-0.745899141,8.63524437,7.122634888
4.054518437,-1.09294343,8.703669548,6.801419258
4.064518437,-1.536033511,8.615965843,6.620139599
4.07452,-1.744702578,8.326717377,6.463472843
4.08452,-1.63445437,7.79523325,6.065680981
4.094518437,-1.570739865,7.496436596,5.541369915
4.104518437,-1.830970407,7.462314606,4.886680603
4.114518437,-2.191632986,7.343179226,4.139287472
4.124518437,-2.38883853,7.078543186,3.891468287
4.134518437,-2.269712687,6.870764732,4.171302319
4.14452,-2.000690699,6.68494606,4.072402954
4.15452,-1.780203819,6.384818554,3.891793966
4.164518437,-1.841447473,6.092065334,3.77553153
4.174518437,-1.949569583,5.802089214,3.347716331
4.184518437,-2.183904409,5.752308846,2.786026955
4.194518437,-2.389690876,5.621202469,2.366447926
4.204516875,-2.464907169,5.592625141,1.983021379
4.21452,-2.591234922,5.533861637,0.714832008
4.224518437,-2.197474957,5.444031239,0.410701334
4.234518437,-1.560023427,5.509067535,-0.060870182
4.244516875,-1.134956956,5.914329052,-0.841044724
4.254518437,-0.567492843,6.236837864,-1.544834614
4.26452,-0.199408263,6.581717491,-1.763683796
4.274518437,-0.025033772,6.952905178,-1.516563892
4.28452,-0.008983044,7.103490829,-1.238539696
4.294518437,0.15754804,6.916369438,-1.147435427
4.304518437,0.74527663,6.486964703,-1.599460721
4.314518437,1.445982814,6.213106155,-2.198911428
4.324518437,1.233942747,6.42656374,-2.429415464
4.334518437,1.426024795,6.696332932,-3.131634951
4.344518437,0.755619586,7.20544529,-3.442028761
4.35452,0.245185405,7.612737656,-3.943968296
4.36452,0.18878758,7.498466969,-3.88536787
4.37452,0.445704579,7.096786976,-3.961474657
4.384518437,0.951072633,6.868485451,-4.022890568
4.394518437,1.272652268,6.795472145,-3.821739435
4.404518437,1.389297724,6.591687202,-3.757172585
4.414518437,1.323208213,6.357419491,-3.892665386
4.424518437,1.2533741,6.29024744,-4.00833416
4.434518437,1.192714572,6.386647701,-4.139823437
4.44452,1.09732008,6.301615238,-4.408175468
4.454518437,1.254465818,6.060260773,-4.630625248
4.464518437,1.525412917,5.858084679,-4.595784664
4.474518437,1.903093338,5.619315624,-4.463941097
4.484518437,2.337085485,5.302179813,-4.342861652
4.494518437,2.460837126,5.105280399,-4.255233765
4.50452,2.395092249,4.862585068,-4.188033104
4.514518437,2.28924942,4.598677158,-4.209829807
4.524518437,2.217068911,4.271820545,-4.320432663
4.534518437,2.130983114,3.735567331,-4.062299252
4.544518437,2.314407587,3.081021309,-4.224597454
4.554518437,2.366562843,2.618413687,-4.9141469
4.564518437,2.349123478,2.121023178,-5.657594204
4.57452,2.421849728,1.636379361,-6.445161819
4.58452,2.432585478,1.515280604,-7.011706829
4.594518437,2.72565484,1.350502133,-7.214620113
4.604518437,3.454114676,1.016022563,-7.474467754
4.614518437,3.993049383,0.606307626,-7.671481609
4.624518437,4.211869717,0.179967344,-7.845903873
4.634518437,4.099840164,-0.228742018,-8.334934235
4.64452,3.646378517,-0.605407417,-8.524843216
4.654518437,3.595247984,-1.251219392,-8.80509758
4.664518437,3.814260006,-1.633812785,-9.091405869
4.674518437,4.246030331,-1.914872885,-9.283296585
4.684518437,4.797357559,-2.338301897,-9.573924065
4.694518437,5.168535233,-2.583860636,-10.15701675
4.704518437,5.405800819,-2.864624023,-10.77951908
4.71452,5.364543915,-3.229548216,-11.41793823
4.724518437,5.006447792,-3.379405975,-11.61368942
4.734518437,4.766615868,-3.856570244,-11.52745914
4.744518437,4.921434402,-4.35597229,-12.22753334
4.754518437,4.850288391,-4.680893898,-12.59713936
4.764524687,4.650305748,-5.019539356,-12.92251205
4.774518437,4.481169701,-5.356978416,-13.20977879
4.78452,4.439270973,-5.663838387,-13.51671505
4.79452,4.315079212,-5.866368294,-13.63652992
4.804518437,4.279271603,-6.062510967,-13.68414688
4.814518437,4.290964603,-6.266669273,-13.73640633
4.824518437,4.595324993,-6.625330448,-13.84368515
4.834518437,5.155989647,-7.105904102,-14.25822735
4.844518437,5.718426228,-7.422964573,-15.01299477
4.85452,6.042265892,-7.788175106,-16.00086212
4.86452,5.637425423,-7.835637569,-16.6088562
4.87452,4.976319313,-7.752645016,-16.60582733
4.884518437,4.870361328,-7.765612125,-16.21651268
4.894518437,4.794321537,-7.637503147,-15.23437214
4.904518437,4.717870235,-7.31976366,-14.11196136
4.914518437,5.061830521,-6.933004379,-12.9843111
4.924518437,5.554519176,-6.364563465,-12.51456928
4.93452,5.412456512,-5.829248905,-12.71885109
4.94452,5.244412422,-5.008899689,-12.17042542
4.954518437,5.481285095,-4.456758499,-11.85796356
4.964524687,5.960613728,-4.112070084,-11.75433254
4.974518437,6.403944492,-3.771882772,-11.87908936
4.984518437,6.519640923,-3.615110397,-12.10429764
4.994518437,6.394701958,-3.30223608,-12.15082169
5.00452,6.055500984,-2.846035242,-11.86189079
5.01452,5.795031071,-2.543628454,-11.31885624
5.024518437,5.778252125,-2.390897512,-10.86584473
5.034518437,6.086979866,-1.999158382,-10.26024723
5.044518437,6.613522053,-1.813224673,-9.821639061
5.054518437,6.807988644,-1.751933098,-9.554225922
5.064518437,6.647500515,-1.315671206,-9.464422226
5.07452,6.282528877,-0.688256323,-9.335472107
5.08452,5.806446552,-0.112786047,-9.037240028
5.094518437,5.465205669,0.348136067,-8.653496742
5.104518437,5.10565424,0.812850595,-7.98687458
5.114521562,4.909770012,1.179852962,-7.191358089
5.124518437,5.025774002,1.509869695,-6.558666229
5.134518437,5.090417385,1.734503269,-6.005318642
5.14452,5.137343884,1.699241519,-5.082957268
5.154518437,5.155501366,1.898841262,-4.393398285
5.164523125,5.169512272,2.214521646,-3.924450874
5.174518437,5.213603973,2.285820961,-3.350819111
5.184518437,5.420558453,2.345110893,-2.948468924
5.194518437,5.612372398,2.436387539,-2.631514788
5.204518437,5.746007442,2.562810898,-2.137227058
5.21452,5.821578026,2.608176231,-1.630058646
5.22452,5.964492321,2.533266306,-1.099982381
5.234518437,6.514239311,2.287602186,-0.61404568
5.244518437,7.244499683,2.085886002,0.434432656
5.254518437,7.48457098,2.317635059,1.386874795
5.264518437,7.343179226,2.526045561,1.315776587
5.274518437,6.91233778,2.286989212,1.320248961
5.28452,6.596130848,2.001993179,1.202291489
5.29452,6.587406158,1.926815152,0.67728132
5.30452,6.78716898,1.752948165,0.244064912
5.31452625,7.855710506,1.272575617,0.439872295
5.324518437,9.441227913,1.19260931,0.835844517
5.334518437,10.12922573,1.785566807,1.571285725
5.344518437,10.17263794,2.631323338,2.244736433
5.35452,9.760778427,3.382978201,2.606615067
5.364521562,9.705596924,3.553675175,2.988432884
5.374518437,9.80119133,3.465415239,3.279395342
5.384518437,9.596113205,3.206927776,3.376341343
5.394518437,9.452749252,2.554814339,3.795173407
5.404518437,9.479295731,1.935635328,4.258432388
5.414521562,9.503218651,1.726813078,4.434971333
5.424518437,9.649370193,1.525968313,4.446358204
5.43452,9.969121933,1.35877645,4.701350212
5.44452,10.43737984,1.461995244,4.787387848
5.454518437,10.61819744,1.721239448,4.595880508
5.464518437,11.03064251,1.654393315,4.481868744
5.474518437,11.46618748,1.776765704,4.228705883
5.484518437,11.80501366,1.944781184,3.800316095
5.494518437,12.77441597,2.086489201,3.505388975
5.504518437,13.83013439,2.08363533,3.102530956
5.51452,14.70073318,2.421390057,2.206151485
5.524518437,15.2537756,2.485717535,1.787137389
5.534518437,15.63215446,2.180274963,2.063351631
5.544518437,15.32802486,1.826450229,2.731314659
5.554518437,15.03440952,1.347887635,3.4157691
5.564518437,15.09831429,1.042933345,4.011226177
5.57452,15.2233305,0.980042458,3.942522287
5.58452,15.50239754,0.978155851,3.565157652
5.594518437,16.262146,1.106006265,3.16021204
5.604518437,16.87446594,1.568776608,2.335447788
5.614518437,17.21660042,1.749644279,1.658779502
5.624518437,17.34404755,1.554478526,1.592306852
5.634518437,17.55085754,1.028194666,1.68501997
5.64452,17.62842941,0.670567989,1.670846224
5.65452,17.92374992,0.708607078,1.955076337
5.664518437,18.16735458,0.959375739,2.465931892
5.674518437,18.68342209,1.236394405,3.119357347
5.684518437,19.72543526,1.446404219,3.541177511
5.694518437,20.1552124,2.20293355,2.905823231
5.704518437,20.17681885,2.673202753,2.704873085
5.71452,19.71210289,2.846945047,2.578612566
5.72452,18.90484619,2.922946692,2.461440325
5.734518437,17.8355484,2.780175686,2.226607561
5.744518437,16.78345871,2.738736868,2.075791836
5.754518437,15.79614735,2.943029165,1.888182282
5.764518437,14.95596409,3.159129858,2.060019016
5.774518437,14.00306225,3.211333036,2.861607313
5.78452,12.87569141,3.023905277,4.044735432
5.79452,11.4770174,2.716403723,4.884697914
5.80452,10.14456749,2.357196808,5.233878136
5.814518437,8.761618614,2.061110735,5.29587841
5.824518437,7.65780592,1.93130672,5.293933868
5.834518437,6.633729458,2.066081047,5.148644447
5.844518437,5.656176567,2.265949011,5.089584351
5.85452,4.935617924,2.315202475,5.071397781
5.86452,4.323334217,2.380908966,4.862661839
5.87452,3.607831955,2.569437981,4.501539707
5.884518437,3.014012575,2.554344893,4.242994308
5.894518437,2.321389198,2.349726915,4.142093182
5.904518437,1.546213746,2.12914443,4.138329506
5.914518437,0.600571096,2.037551641,4.236673832
5.924518437,-0.274308473,2.020437956,4.664479256
5.93452,-0.977629125,2.0354352,5.490047932
5.94452,-1.624599814,2.099724293,5.92501688
5.954518437,-1.813387394,2.044590712,5.916407108
5.964518437,-1.6860255,2.08904624,5.947915077
5.974518437,-1.808608651,2.339489222,5.885847569
5.984518437,-2.213640451,2.536292791,5.163584232
5.994518437,-2.399650812,2.331128836,4.495419979
6.00452,-2.478314638,1.942224264,4.069232941
6.01452,-2.617149591,1.672809482,3.542259693
6.024516875,-2.934706926,1.606269836,3.18870306
6.034518437,-3.481025457,1.644912243,2.793918371
6.044518437,-4.139028549,1.530795097,2.727819204
6.054518437,-4.747835636,1.425364017,3.056389809
6.064518437,-4.951649666,1.367318988,3.192380428
6.07452,-5.027794838,1.35929358,3.398760796
6.08452,-4.950835228,1.516908646,3.781670094
6.094518437,-4.82908535,1.783038497,3.670847416
6.104518437,-4.453971386,1.845690012,3.216944933
6.114518437,-3.544328213,1.464322448,2.726928473
6.124518437,-2.452658415,1.037972569,2.156256199
6.134518437,-1.397619963,0.854299009,1.446011543
6.14452,-0.106111012,0.535477579,1.0365839
6.15452,1.051169395,0.318534166,0.610425651
6.164518437,1.822437525,0.354858994,-0.068186864
6.174518437,2.498933554,0.238433748,-0.870062411
6.184518437,3.387919664,-0.088097043,-1.842615843
6.194518437,3.775684595,-0.066357695,-2.874248505
6.204518437,4.426150799,-0.17452772,-3.852643967
6.21452,5.172912121,-0.372940004,-5.075554371
6.22452,5.698190212,-0.760465443,-6.589417458
6.234518437,6.346108913,-1.5849998,-8.371019363
6.244516875,6.509403229,-1.548014164,-9.805672646
6.254518437,6.321084976,-1.021864414,-11.1073904
6.264518437,6.15589571,-0.954702258,-11.61182022
6.274518437,6.666932106,-1.309312224,-12.26447105
6.28452,7.0409832,-1.238989711,-12.86387444
6.29452,7.048654079,-1.447553396,-12.934762
6.30452,6.919089317,-2.356143475,-13.45128632
6.314518437,6.197227955,-2.780932188,-14.22604942
6.324518437,5.675828457,-3.317147255,-15.02901649
6.334518437,5.405590057,-3.868694544,-15.7388792
6.344518437,5.074050426,-3.885453939,-16.03077126
6.35452,5.174070835,-4.109273434,-16.37099648
6.36452,5.26070261,-4.50990963,-17.70930672
6.374518437,4.691188812,-4.531495571,-18.52290344
6.384523125,4.420146465,-4.810956478,-18.89813232
6.394518437,4.116666794,-4.735692501,-19.25992584
6.404518437,3.860420227,-4.660648823,-19.28187561
6.414518437,3.61396122,-4.661252022,-18.92627907
6.424518437,3.738306284,-4.65644455,-18.46006012
6.43452,4.147120953,-4.68110466,-18.13344383
6.44452,4.519994259,-4.581122875,-18.08297539
6.454518437,5.118860722,-4.546186447,-18.34706497
6.464518437,5.605496407,-4.453415871,-18.72756004
6.474518437,6.016877651,-4.341051579,-18.5896244
6.484524687,6.537961006,-4.222988605,-17.88327026
6.494518437,6.679496765,-4.037715435,-16.2593689
6.50452,6.85435009,-3.963725328,-14.21662712
6.51452,7.183907032,-3.787176847,-12.58850288
6.524518437,7.751361847,-3.425901413,-11.14156246
6.534518437,8.547636032,-3.089803457,-10.07440853
6.544518437,9.355563164,-2.696330786,-9.493085861
6.554518437,9.909916878,-2.022707701,-8.679039001
6.564518437,10.13649368,-1.210259318,-7.640223026
6.57452,10.54077911,-0.645639539,-6.639379501
6.584518437,11.0758543,-0.319932371,-5.884411335
6.594518437,11.32047558,0.067008913,-5.300484657
6.604518437,11.42256355,0.386922121,-4.739705086
6.614518437,11.48172855,0.665597618,-4.417732716
6.624518437,10.91497326,1.29855752,-4.165920258
6.634518437,10.14912605,2.303308249,-3.432614803
6.64452,9.608258247,2.968541861,-2.665579557
6.65452,9.467353821,3.414619923,-1.897127032
6.664518437,9.511991501,3.7807796,-1.318256974
6.674518437,9.588384628,4.047713757,-1.053381681
6.684521562,9.741001129,4.11939621,-1.022410274
6.694518437,9.622200012,4.228178978,-1.050345778
6.704518437,8.927105904,4.930475235,-0.999780297
6.71452,8.405199051,5.748391628,-0.837395966
6.724518437,7.902713776,6.458665371,-0.597563982
6.734518437,7.758191109,6.876826763,-0.214223579
6.744518437,8.068583488,7.09963131,0.077916898
6.754518437,8.690099716,7.052015305,0.175351322
6.764518437,9.160291672,6.970488071,0.122774661
6.774518437,9.168931007,7.207332134,0.009710882
6.78452,8.983906746,7.810900688,-0.258478016
6.79452,9.033648491,8.394147873,-0.737921655
6.804518437,9.192708969,8.864981651,-1.191105723
6.814518437,9.467783928,9.344013214,-1.607026458
6.824518437,9.999575615,9.626586914,-2.016224146
6.834524687,10.59096146,9.789766312,-2.392132998
6.844518437,11.00560951,9.905262947,-2.567436457
6.85452,11.12700367,9.98363018,-2.710715055
6.86452,10.98588181,10.16142273,-3.035742283
6.87452,10.67763138,10.25609016,-3.250243664
6.88452625,10.54664993,10.20682621,-3.273074627
6.894518437,10.58110714,10.136446,-3.41223526
6.904518437,10.71084499,10.13585281,-3.772399902
6.914518437,11.12286854,9.984167099,-4.027190685
6.924518437,11.53363609,9.713583946,-4.129164696
6.934518437,11.73469162,9.293266296,-4.11164856
6.94452,11.65713882,8.991337776,-4.016033649
6.954518437,11.5547142,8.567305565,-3.726593971
6.964518437,11.54384518,7.948739529,-3.30139327
6.974518437,11.6514883,7.288610458,-3.076434135
6.984518437,11.71553802,6.717957497,-3.217826128
6.994518437,11.71976089,6.245360851,-3.738143682
7.00452,11.63952637,5.845452785,-4.168084621
7.014518437,11.48777199,5.549069881,-4.290668011
7.024518437,11.30609035,5.324302197,-4.236711979
7.034518437,11.26442146,5.032458305,-3.975887775
7.044518437,11.41621494,4.627225399,-3.6243999
7.054518437,11.6203537,4.210835457,-3.438897133
7.064518437,11.77620697,3.844321728,-3.759930849
7.07452,11.73621368,3.577454329,-4.35527277
7.08452,11.7251339,3.402141333,-4.926222801
7.094518437,11.60399628,3.366410255,-5.474955082
7.104518437,11.35011482,3.414974213,-5.706972122
7.114518437,11.07734871,3.222260237,-5.519371986
7.124518437,10.9151268,2.894666433,-5.102916241
7.134518437,10.79685307,2.698992968,-4.869049549
7.14452,10.73343658,2.595084667,-5.034383297
7.15452,10.80700493,2.489002466,-5.442345619
7.164518437,10.78886604,2.378083944,-5.895127773
7.174518437,10.61295986,2.270066977,-6.169081688
7.184518437,10.28574944,2.238358259,-6.22342062
7.194518437,10.01982021,2.233004808,-6.123783588
7.204518437,9.77695179,2.181165457,-5.916349888
7.21452,9.592762947,2.119184494,-5.636506081
7.224518437,9.516414642,1.948267221,-5.34963274
7.234518437,9.426363945,1.842816949,-5.105912685
7.244518437,9.374094963,1.739578962,-4.96794939
7.254518437,9.36879921,1.646023154,-5.014444351
7.264518437,9.247929573,1.546951175,-5.038185596
7.274518437,8.908823967,1.49745822,-5.076234341
7.28452,8.447078705,1.51752162,-4.990828037
7.294518437,8.035390854,1.510118723,-4.852280617
7.30452,7.764922619,1.43925035,-4.699434757
7.314518437,7.509078026,1.399391651,-4.579427719
7.324518437,7.324858665,1.350502133,-4.465071201
7.334518437,7.262963772,1.235044122,-4.465549946
7.344518437,7.31133604,1.092119813,-4.672245979
7.354518437,7.397278309,0.934418559,-5.053910732
7.36452,7.412869453,0.869909227,-5.554787159
7.37452,7.278890133,0.973022699,-6.031223774
7.384518437,6.978044033,1.132601023,-6.406002522
7.394518437,6.662861824,1.248844266,-6.653907776
7.404518437,6.395917892,1.341882944,-6.740453243
7.414518437,6.455600739,1.367318988,-6.814223289
7.424518437,6.426305294,1.519331574,-7.099238873
7.43452,6.466298103,1.48867619,-7.456501484
7.44452,6.471249104,1.455090404,-7.998644352
7.454518437,6.456318855,1.5637393,-8.508724213
7.464518437,6.367877007,1.84444499,-8.797225952
7.474518437,6.23223114,2.114214182,-8.942745209
7.484518437,6.231187344,2.376676083,-8.991233826
7.494518437,6.381160259,2.590353727,-9.023967743
7.50452,6.857261658,2.631811857,-9.139644623
7.514518437,7.484628677,2.628153324,-9.503706932
7.52452625,7.853105545,2.803332329,-9.994576454
7.534518437,7.928350925,3.075773239,-10.21817493
7.544518437,7.719719887,3.224204302,-10.07905197
7.554518437,7.535337925,3.250597954,-9.664587021
7.564518437,7.419046402,3.26281786,-9.384130478
7.57452,7.423260212,3.211629868,-9.114218712
7.584518437,7.63891077,3.189076424,-8.885006905
7.594518437,7.78405714,3.248395205,-8.687696457
7.604518437,7.793940067,3.293205261,-8.378671646
7.614518437,7.715707302,3.341309547,-8.12952137
7.624518437,7.680636883,3.402505159,-7.921101093
7.634518437,7.725802422,3.4670434,-7.792283535
7.64452,7.887486458,3.507294655,-7.559069157
7.65452,8.075536728,3.526170492,-7.33416748
7.664518437,8.349012375,3.503042459,-7.124550343
7.674518437,8.55907917,3.537768126,-6.835139275
7.684518437,8.716608047,3.60251689,-6.558905602
7.694518437,8.824069023,3.670809031,-6.324475288
7.704518437,8.998625755,3.733470201,-6.165624619
7.71452,9.091291428,3.882877827,-5.903038025
7.72452,9.092355728,3.920399666,-5.525414944
7.734518437,9.141713142,3.855900049,-5.050712109
7.744518437,9.365848541,3.756645918,-4.673050404
7.754518437,9.516884804,3.791170359,-4.357016087
7.764518437,9.560353279,3.882724524,-3.958831549
7.774518437,9.574739456,3.926078796,-3.498263836
7.78452,9.574652672,3.952913046,-3.039764643
7.79452,9.529200554,3.941066504,-2.57759738
7.80452,9.391619682,4.023733616,-2.031508684
7.814518437,9.303350449,4.071043015,-1.52575767
7.824518437,9.245487213,4.130160332,-1.096343279
7.834518437,9.155724525,4.247964859,-0.720530212
7.844518437,9.131120682,4.32258749,-0.416437864
7.854518437,9.167197227,4.408778667,-0.062067281
7.86452,9.099843979,4.552268028,0.349237412
7.87452,9.018411636,4.680185318,0.677721858
7.884518437,8.902312279,4.777571678,1.178809047
7.894518437,8.814559937,4.864605904,1.660876751
7.904518437,8.75689888,4.961867809,1.996352315
7.914518437,8.590394974,5.068361759,2.303672075
7.924518437,8.21989727,5.206670284,2.753054142
7.93452,7.77068758,5.335085392,3.195588827
7.94452,7.448064327,5.390927792,3.70873332
7.95452,7.365847588,5.52463913,4.026290417
7.964518437,7.380480766,5.739887714,4.21112299
7.974518437,7.474928379,5.905260086,4.459392071
7.984518437,7.553237915,6.027709007,4.672878265
7.994518437,7.452488899,6.189700603,4.869556904
8.00452,7.216880322,6.348043442,5.0508461
8.01452,6.901391506,6.454212189,5.179175377
8.024518437,6.588402271,6.475617409,5.185735226
8.034518437,6.301193714,6.51758194,5.214379787
8.044518437,6.138828754,6.564795494,5.273899555
8.054518437,5.944783211,6.598975182,5.309467793
8.064518437,5.768570423,6.507880688,5.389261723
8.07452,5.55910635,6.327022552,5.670475006
8.08452,5.278927326,6.059006214,5.974806786
8.094518437,4.914424419,5.76013279,6.267426014
8.104518437,4.449633121,5.476908684,6.591572285
8.114518437,3.949877262,5.202323437,6.976071358
8.124518437,3.348587751,5.092313766,7.322263241
8.134518437,2.791007042,5.045329571,7.425798416
8.14452,2.462398052,4.957548618,7.620791435
8.154518437,2.190684795,4.888069153,7.771090031
8.164518437,1.884667635,4.780770302,7.908277512
8.174518437,1.448970795,4.826748848,8.012234688
8.184518437,1.06578362,4.941220284,8.135785103
8.194518437,0.750553489,4.96479845,8.339665413
8.204518437,0.495973229,5.026683807,8.612747192
8.21452,0.352177471,5.122097492,8.678742409
8.22452,0.188308746,5.071378708,8.709626198
8.23452,0.038249765,4.976932049,8.679929733
8.244516875,-0.068301782,4.983147621,8.462929726
8.25452,-0.187676668,5.095751762,8.282176971
8.26452,-0.256600946,5.25437212,8.127692223
8.274518437,-0.295090139,5.38408041,7.839066029
8.28452,-0.366600156,5.616643906,7.537272453
8.29452,-0.379480958,5.720600128,7.275930882
8.30452,-0.330256164,5.644042969,7.072452545
8.314518437,-0.34293586,5.558416843,6.861312389
8.324518437,-0.455453753,5.433276653,6.785205841
8.334518437,-0.636771441,5.402860641,6.790501595
8.344518437,-0.754815161,5.527349472,6.911293983
8.354521562,-0.855658948,5.701178074,6.9861269
8.36452,-1.001523256,5.948365211,7.123008251
8.37452,-0.978682578,6.076876163,7.438774586
8.384518437,-0.857928634,5.964051723,7.651073456
8.394518437,-0.788046658,5.743957996,7.728923321
8.404518437,-0.712993264,5.47091341,7.752558708
8.414518437,-0.772091687,5.174990177,7.679669857
8.424518437,-0.971959651,4.98197937,7.569737434
8.43452,-1.306372166,5.005002022,7.694810867
8.44452,-1.352302551,5.113727093,8.229475021
8.45452,-1.143681407,5.117069721,8.956832886
8.464518437,-0.783219934,5.024375916,9.478816986
8.474518437,-0.385179162,4.826059341,9.590261459
8.484518437,0.015964536,4.515550613,9.654829025
8.494518437,0.257165968,4.365807533,9.669808388
8.504524687,0.263534546,4.549021244,9.463751793
8.51452,0.355950743,4.777935982,9.573483467
8.524529375,0.665406108,5.007711887,10.01539516
8.534518437,1.097214699,5.165212154,10.41546726
8.544518437,1.503462791,5.188062668,10.72254658
8.55452,1.880721927,5.099563122,10.67308426
8.564518437,2.088778019,4.978368759,10.30261421
8.57452,2.102300644,4.903066158,9.945342064
8.58452,2.028338909,5.022871971,9.697685242
8.594518437,2.149964333,5.091748714,9.67051506
8.604524687,2.355645418,4.973494053,9.825544357
8.614518437,2.450790882,4.913217545,9.961860657
8.624518437,2.580489635,4.85083437,10.06283092
8.634518437,2.648858547,4.745633125,9.890697479
8.64452,2.622790337,4.632962227,9.634487152
8.65452,2.590104818,4.568452835,9.313770294
8.664518437,2.495169878,4.599289894,9.154201508
8.674518437,2.39065814,4.65225935,9.174350739
8.684518437,2.317271233,4.703169823,9.375252724
8.694518437,2.392104387,4.727590561,9.596323967
8.70452,2.49796629,4.733020306,9.73898983
8.71452,2.634780645,4.638171673,9.56993103
8.72452,2.716777086,4.53032732,9.287338257
8.73452,2.790518522,4.466574669,8.989345551
8.744518437,2.650352478,4.503857136,8.533011436
8.754523125,2.556605101,4.462677956,8.411166191
8.764518437,2.524724007,4.509028435,8.574679375
8.774518437,2.435286045,4.491579533,8.806074142
8.78452,2.429712296,4.384922981,9.019925117
8.79452,2.360702038,4.21963644,9.141895294
8.804524687,2.328370571,4.103546619,9.106910706
8.814518437,2.213084936,3.961608887,8.997716904
8.824518437,2.102137804,3.776929617,8.898827553
8.834518437,1.93600893,3.732052803,8.860001564
8.844518437,1.742279649,3.719880581,8.890417099
8.854524687,1.768970251,3.698122025,9.146559715
8.86452,1.887473583,3.725904465,9.400018692
8.87452,1.978616118,3.690163851,9.499435425
8.884518437,2.133951902,3.667984009,9.542224884
8.894518437,2.402514219,3.848353386,9.661284447
8.904518437,2.654776812,4.042638302,9.62898159
8.914518437,2.904855967,4.112845898,9.528300285
8.924518437,3.218027115,4.260845661,9.634161949
8.93452,3.468183041,4.50920105,9.688558578
8.94452,3.679638863,4.744943619,9.855779648
8.954518437,3.841793299,4.957893372,9.791355133
8.964518437,4.04245615,5.122643471,9.688272476
8.974518437,4.309323311,5.301777363,9.714914322
8.984518437,4.524169445,5.476764679,9.695760727
8.994518437,4.625674248,5.572465897,9.633998871
9.00452,4.669727325,5.644387722,9.576059341
9.01452,4.6673522,5.716070175,9.499455452
9.024518437,4.697758675,5.779008865,9.427820206
9.034518437,4.738249302,5.841851711,9.311300278
9.044518437,4.696494579,5.911111355,9.171640396
9.054518437,4.651100636,6.063469887,9.149153709
9.064518437,4.572292805,6.297372818,9.304490089
9.07452,4.552421093,6.53378582,9.463215828
9.08452,4.608474255,6.651256084,9.581001282
9.094518437,4.692721367,6.715850353,9.581307411
9.104518437,4.762497902,6.749867439,9.461051941
9.114518437,4.671068192,6.873130322,9.257888794
9.124518437,4.64344883,7.047496319,9.087882042
9.134518437,4.658091545,7.224215984,8.950234413
9.14452,4.733307838,7.397767067,8.906908989
9.15452,4.930992126,7.589513779,9.015902519
9.164518437,5.157761574,7.897034645,9.225030899
9.174518437,5.520617008,8.209727287,9.431679726
9.184518437,5.842598915,8.490997314,9.366509438
9.194518437,6.207676411,8.559299469,9.044881821
9.204518437,6.472551823,8.555535316,8.707165718
9.21452,6.59778738,8.55060482,8.245889664
9.22452,6.790809155,8.415685654,7.913076878
9.234523125,6.861829758,8.397730827,7.711167812
9.244518437,6.861551762,8.385681152,7.545220852
9.254518437,6.945818424,8.370722771,7.499770641
9.26452,7.123065948,8.379389763,7.573626041
9.274518437,7.262666702,8.268777847,7.540968895
9.28452,7.223296642,8.03530407,7.329388618
9.29452,7.142334461,7.658439159,6.996623039
9.30452,6.848211288,7.444128036,6.73836565
9.314518437,6.743632793,7.169264317,6.638230324
9.324518437,6.636889458,6.898604393,6.449624538
9.334518437,6.429982662,6.539991379,6.182766914
9.344518437,6.074893951,6.068621159,5.873493671
9.354518437,5.830321312,5.646561623,5.561682224
9.36452,5.448618889,5.401127338,5.289461613
9.37452,4.976434231,5.195790768,5.001238346
9.384518437,4.630960464,4.85654211,4.506260872
9.394518437,4.210711002,4.602642059,4.135715008
9.404518437,3.925896883,4.376428127,4.010766506
9.414518437,3.465472698,3.967622995,3.725052118
9.424518437,2.776172638,3.509899616,3.301479578
9.43452,2.023540974,3.096851826,2.907844067
9.44452,1.163687348,2.739187002,2.485688925
9.454518437,0.22116676,2.567857742,2.132716417
9.464518437,-0.707007706,2.516985893,1.968474269
9.474518437,-1.505311131,2.334537983,1.987149
9.484518437,-2.275813103,1.955622196,2.072526217
9.494518437,-3.16355443,1.550350904,2.163649559
9.50452,-4.213095665,1.266781688,2.322595835
9.51452,-5.153250694,0.962315798,2.734111309
9.524518437,-6.085600853,0.746435463,3.346806526
9.53452,-7.009149551,0.6442222,3.684752941
9.544518437,-7.695931435,0.512387872,3.831718445
9.554518437,-8.141062737,0.359733582,4.154351711
9.564518437,-8.456549644,0.254235476,4.21186018
9.57452,-8.697406769,0.238701895,4.115632534
9.58452,-8.971427917,0.347781718,4.055576324
9.594518437,-9.286658287,0.550570607,3.908333063
9.604518437,-9.569834709,0.712667644,3.674687624
9.614518437,-9.763994217,0.833000183,3.489213705
9.624518437,-9.873621941,0.92071414,3.351250172
9.634518437,-9.868985176,0.926948667,3.279108047
9.64452,-9.818917274,0.874036789,3.240082502
9.65452,-9.981091499,0.893774629,3.305003881
9.664518437,-10.27893162,1.068867326,3.379607201
9.674518437,-10.50711727,1.205930591,3.638353348
9.684518437,-10.53620243,1.120562911,4.032525063
9.694518437,-10.42929554,1.007518291,4.303625107
9.704518437,-10.1639986,0.833871663,4.570856571
9.71452,-9.860116959,0.688083947,4.953727722
9.724518437,-9.544848442,0.65384686,5.227413654
9.734518437,-9.205648422,0.604708314,5.532377243
9.744516875,-8.805912018,0.66833657,5.914607048
9.754518437,-8.131666183,0.688064814,6.45676899
9.764518437,-7.285861969,0.585784495,6.876462936
9.774518437,-6.241300583,0.46168825,7.128180027
9.78452,-5.12191534,0.351267695,7.327693462
9.79452,-4.04946661,0.404620081,7.487616539
9.80452,-2.890443087,0.78170681,7.56643343
9.814518437,-1.734522462,1.402542472,7.805202484
9.824518437,-0.386615664,2.026998043,8.166191101
9.834518437,1.119624496,2.632501364,8.550001144
9.844518437,2.456067801,3.39959383,8.587454796
9.854518437,3.770331144,4.391588211,8.374458313
9.86452,5.23398304,5.383908272,8.218700409
9.87452,6.362341881,6.5137043,8.189998627
9.884518437,7.127020836,7.550220013,8.290171623
9.894518437,7.367217064,8.177107811,8.223977089
9.904518437,6.990953922,8.568081856,7.848443031
9.914518437,6.635644436,8.776539803,7.54220438
9.924521562,6.459958076,8.819299698,7.323719025
9.934518437,6.131138325,8.974290848,7.252103806
9.94452,6.109065056,9.268903732,7.682887554
9.954518437,6.506616116,9.407709122,8.397518158
9.964518437,6.871425629,9.462325096,8.832421303
9.974518437,7.091318607,9.479706764,9.075613976
9.984518437,7.08951807,9.625293732,9.180546761
9.994518437,7.104419708,9.85147953,8.989125252
10.00452,7.122951031,10.02472401,8.791106224
10.01452,7.285804272,10.15312862,8.799190521
10.02452625,7.451396942,10.20637703,8.767327309
10.03451844,7.417725086,10.21443176,8.633328438
10.04451844,7.332500935,10.20343685,8.629747391
10.05451844,7.200848579,10.25744057,8.622344017
10.06451844,7.08878088,10.0846653,8.553304672
10.07452,6.934201717,9.826761246,8.428165436
10.08451844,6.562841892,9.636144638,8.27611351
10.09451844,6.112453938,9.357574463,8.117311478
10.10451844,5.718579292,9.146883965,8.102169991
10.11451844,5.494989395,8.950666428,8.217177391
10.12451844,5.350226402,8.710900307,8.337405205
10.13451844,5.207139492,8.488402367,8.454453468
10.14452,5.007415295,8.265176773,8.438910484
10.15452,4.78585577,8.042736053,8.256931305
10.16451844,4.551281452,7.830504417,8.027356148
10.17451844,4.314763069,7.604310036,7.839975834
10.18451844,4.008056164,7.413952827,7.708888531
10.19451844,3.662620783,7.100780487,7.689218044
10.20451844,3.331722975,6.787312508,7.796564102
10.21452,2.990913153,6.514248848,8.021025658
10.22452,2.603617668,6.237508297,8.17239666
10.23452,2.219491959,6.047753334,8.337050438
10.24451844,1.946696639,5.843623638,8.430865288
10.25451844,1.65193212,5.721998215,8.468032837
10.26451844,1.344162226,5.629562855,8.476718903
10.27452,1.06678915,5.544329166,8.526105881
10.28451844,0.842232227,5.396271706,8.57167244
10.29452,0.640314877,5.244833946,8.542645454
10.30452,0.432115078,5.113219738,8.509730339
10.31451844,0.230590343,5.020631313,8.412697792
10.32452625,0.085568763,4.885291576,8.290133476
10.33451844,-0.022026654,4.839514732,8.301980019
10.34451844,-0.112604089,4.835751057,8.244069099
10.35451844,-0.185359091,4.797395706,8.177041054
10.36452,-0.177707225,4.743766785,8.296157837
10.37452,-0.194935888,4.72430563,8.394033432
10.38451844,-0.181834817,4.711673737,8.500890732
10.39451844,-0.106723927,4.711147308,8.582639694
10.40451844,-0.005343858,4.770571232,8.654684067
10.41451844,0.10638874,4.806302071,8.69332695
10.42452469,0.233463392,4.862317085,8.655603409
10.43452,0.341566384,4.931836128,8.567621231
10.44452,0.38053441,4.983473301,8.460686684
10.45451844,0.40584591,5.057195663,8.347460747
10.46451844,0.390695393,5.086241722,8.288946152
10.47451844,0.308909476,5.125209808,8.273231506
10.48451844,0.270602256,5.159696102,8.300256729
10.49451844,0.276721835,5.188387871,8.382388115
10.50452,0.301334202,5.162885189,8.465542793
10.51452,0.32605195,5.205521107,8.480779648
10.52451844,0.33178845,5.241089344,8.521711349
10.53451844,0.271454573,5.26701355,8.521481514
10.54451844,0.256974459,5.279386997,8.50147438
10.55451844,0.20460847,5.281484127,8.44730854
10.56451844,0.120610297,5.307456493,8.374793053
10.57452,0.009011775,5.279024124,8.210273743
10.58452,-0.068502896,5.265969753,8.103740692
10.59451844,-0.058782436,5.283936024,8.078804016
10.60451844,-0.031718384,5.271476269,8.025076866
10.61451844,-0.024717737,5.285037041,7.972336769
10.62451844,0.001177947,5.316564083,7.999075413
10.63451844,0.072257005,5.342114925,8.063201904
10.64452,0.135157466,5.281303406,8.104994774
10.65452,0.153295934,5.251480103,8.127720833
10.66451844,0.090127327,5.282192707,8.132269859
10.67451844,-0.013005303,5.319839478,8.119034767
10.68451844,-0.0993881,5.34748745,8.110569
10.69451844,-0.16698119,5.322827339,8.065778732
10.70451844,-0.201658815,5.287718773,8.031339645
10.71452,-0.186249733,5.268986702,8.037239075
10.72452,-0.202683538,5.241242409,8.091567993
10.73452,-0.267566383,5.266477585,8.076264381
10.74451844,-0.370641559,5.295782566,8.110635757
10.75451844,-0.390695393,5.263489246,8.197191238
10.76451844,-0.418247879,5.220862865,8.180459976
10.77451844,-0.411017388,5.199727058,8.244894028
10.78451844,-0.401335239,5.194421291,8.274552345
10.79452,-0.390695393,5.187880516,8.219274521
10.80452,-0.386079371,5.208844185,8.162369728
10.81451844,-0.376167387,5.249219894,8.113125801
10.82451844,-0.318189383,5.296854973,8.13309288
10.83451844,-0.195232779,5.333409786,8.208855629
10.84451844,-0.105143756,5.317320824,8.207227707
10.85451844,-0.003361459,5.314734936,8.203501701
10.86452,0.05865794,5.292622089,8.184702873
10.87452,0.077821128,5.302198887,8.132518768
10.88451844,0.085894376,5.33103466,8.098837852
10.89451844,0.141870812,5.371573448,8.091051102
10.90451844,0.195567966,5.481122494,8.08132267
10.91451844,0.370105267,5.513175964,8.097189903
10.92451844,0.623038292,5.483688831,8.169130325
10.93452,0.828230977,5.422675133,8.119561195
10.94452,1.013245225,5.367129803,8.108768463
10.95451844,1.104675055,5.343714237,8.034222603
10.96451844,1.199983478,5.405494213,7.94954443
10.97451844,1.311811805,5.533881187,7.824020863
10.98451844,1.571946621,5.75670433,7.877373219
10.99451844,2.016463518,5.996814251,8.084482193
11.00452,2.444135189,6.22973156,8.189213753
11.01452,2.745708704,6.42449522,8.202160835
11.02451844,3.064530134,6.569056988,8.090045929
11.03451844,3.243003607,6.718024254,7.890513897
11.04451844,3.367990494,6.750576019,7.623674393
11.05451844,3.490487337,6.754732132,7.478834629
11.06451844,3.526955843,6.766233921,7.376918316
11.07452,3.451720476,6.752272129,7.273402691
11.08452,3.351307631,6.699129105,7.292661667
11.09451844,3.382776976,6.654558659,7.309047222
11.10451844,3.669487476,6.500218868,7.385518074
11.11451844,3.912594795,6.345620632,7.64413023
11.12451844,4.130342484,6.250139713,7.721089363
11.13451844,4.302093029,6.082478523,7.874913216
11.14452,4.362800121,5.851802349,8.017453194
11.15452,4.416286945,5.65578413,8.02827549
11.16452,4.555083275,5.412495136,8.088810921
11.17451844,4.576114178,5.187277317,8.226649284
11.18451844,4.651129246,5.036988258,8.280442238
11.19451844,4.822927475,4.862317085,8.399912834
11.20451844,5.064923763,4.704778671,8.641200066
11.21452,5.30809927,4.599452972,8.938167572
11.22452,5.551167011,4.504843712,9.1839571
11.23452,5.815486908,4.409812927,9.371795654
11.24451844,6.161602497,4.289547443,9.513302803
11.25451844,6.462888718,4.135801315,9.52562809
11.26451844,6.406558037,3.939936399,9.25117588
11.27451844,6.163134575,3.794732809,8.944403648
11.28451844,5.994132519,3.618711233,8.833387375
11.29452,5.856935501,3.314159155,8.78861618
11.30452,5.601205826,3.196086645,8.984902382
11.31451844,5.423297405,3.046688557,9.344051361
11.32451844,5.209332466,2.748035908,9.688817024
11.33451844,4.755305767,2.453204393,9.837554932
11.34451844,4.150702953,2.227565289,9.567862511
11.35451844,3.531361103,2.075389624,9.214659691
11.36452,2.948248625,1.951504111,8.798585892
11.37452,2.233205795,1.870158792,8.399731636
11.38451844,1.489327431,1.792969704,8.174062729
11.39451844,0.79924196,1.685968041,8.22651577
11.40451844,0.296210617,1.526849389,8.545173645
11.41451844,-0.188232124,1.384873271,8.825995445
11.42451844,-0.662418127,1.293998957,9.024560928
11.43452,-1.007566214,1.352494121,9.153695107
11.44452,-1.22485435,1.470145106,9.212093353
11.45451844,-1.363315821,1.580431581,9.220444679
11.46451844,-1.478409886,1.711825371,9.0321064
11.47451844,-1.639137506,1.861376882,8.771168709
11.48451844,-1.736045122,2.017258406,8.541380882
11.49451844,-1.730404377,2.164090157,8.406386375
11.50452,-1.749586821,2.317673445,8.434417725
11.51452,-1.6654737,2.499422073,8.493085861
11.52451844,-1.475603938,2.700688124,8.716426849
11.53451844,-1.274558067,2.931211472,8.966141701
11.54451844,-0.994407713,3.095051527,9.204239845
11.55451844,-0.76196903,3.269138575,9.313358307
11.56451844,-0.572309971,3.435899496,9.267648697
11.57452,-0.388464004,3.705103636,9.161326408
11.58452,-0.294860303,3.962623835,9.060472488
11.59452,-0.184276909,4.130993843,8.932258606
11.60451844,-0.047960646,4.264963627,8.7896595
11.61451844,0.001465251,4.428583622,8.537445068
11.62451844,0.140146986,4.58445549,8.452624321
11.63451844,0.420804888,4.77454567,8.520925522
11.64452469,0.759048104,4.922449589,8.632266045
11.65452,0.855256677,5.082449436,8.747426987
11.66451844,0.909652948,5.217750549,8.701314926
11.67451844,1.075551987,5.343905926,8.629880905
11.68451844,1.176989555,5.483411312,8.543181419
11.69452156,1.16447258,5.603935242,8.354872704
11.70451844,1.199121475,5.691017151,8.150513649
11.71452,1.249782801,5.800260067,8.025393486
11.72452,1.273313046,5.928388119,7.977853298
11.73452,1.305452824,6.070354462,7.96295166
11.74451844,1.318017602,6.193071842,7.896938801
11.75451844,1.332229495,6.310090542,7.874232292
11.76451844,1.426197171,6.354249477,7.95732069
11.77451844,1.533878803,6.368815899,8.007389069
11.78451844,1.681591392,6.355762482,8.034883499
11.79452625,1.768548846,6.31729269,8.083408356
11.80452,1.784216523,6.308453083,8.057302475
11.81451844,1.679350495,6.324293137,7.936308861
11.82451844,1.598052979,6.289165497,7.881682873
11.83451844,1.584367752,6.284683228,7.863764763
11.84452,1.625615001,6.170010567,8.038158417
11.85451844,1.778738618,6.035676956,8.12430191
11.86452,2.122143745,6.27442646,7.85605526
11.87452,2.13510108,6.112214565,7.566289902
11.88451844,2.061350107,5.879632473,7.753411293
11.89452625,1.95865798,5.784965515,7.825917244
11.90451844,1.819152713,5.724612713,7.867269993
11.91451844,1.657649398,5.556903839,8.039997101
11.92451844,1.518191934,5.360655785,8.310293198
11.93452,1.364081979,5.193656445,8.502490044
11.94452,1.102587342,5.148970127,8.558381081
11.95451844,0.975244522,5.093913078,8.494169235
11.96451844,0.823097765,5.057693481,8.390623093
11.97451844,0.806357503,4.942120552,8.352125168
11.98451844,0.841810882,4.861981869,8.28704071
11.99451844,0.821134508,4.818551064,8.186839104
12.00452,0.755782425,4.803735733,8.175403595
12.01451844,0.676333249,4.746476173,8.143896103
12.02451844,0.604564607,4.719814301,8.036607742
12.03451844,0.601787388,4.758810997,8.035639763
12.04452,0.678918958,4.839189053,8.208376884
12.05451844,0.858464897,4.789801598,8.424304962
12.06451844,1.048832655,4.666279793,8.598526001
12.07452,1.275008082,4.504929543,8.721856117
12.08452,1.455550075,4.349565029,8.766484261
12.09451844,1.529032946,4.22314167,8.740991592
12.10451844,1.569533229,4.1439991,8.673455238
12.11451844,1.656835437,4.095798969,8.706111908
12.12451844,1.697939038,4.141796589,8.797840118
12.13451844,1.746129513,4.167012215,8.973736763
12.14452,1.651003122,4.223754883,9.2230196
12.15451844,1.569370389,4.254333496,9.281007767
12.16452,1.624619007,4.153738499,9.327771187
12.17451844,1.718624949,4.076157093,9.37242794
12.18451844,1.733047605,4.075735569,9.299050331
12.19451844,1.771105886,4.118199348,9.213356972
12.20451844,1.791983247,4.185207844,9.161623001
12.21452,1.809460998,4.277528286,9.087911606
12.22452,1.831027865,4.329444408,9.030516624
12.23451844,1.708368182,4.504757404,9.018134117
12.24451844,1.57553792,4.65367651,8.88276577
12.25451844,1.489375353,4.695345402,8.761963844
12.26451844,1.517760992,4.663330078,8.651649475
12.27451844,1.487057805,4.564909458,8.583097458
12.28451844,1.452035427,4.44808197,8.514739037
12.29452,1.382593989,4.338312626,8.42296505
12.30452,1.34376955,4.296260834,8.379638672
12.31451844,1.277076721,4.264657021,8.397413254
12.32451844,1.227459311,4.266735554,8.43741703
12.33451844,1.189132929,4.257570267,8.523845673
12.34451844,1.140588045,4.240303516,8.455161095
12.35451844,1.133491635,4.165614128,8.420062065
12.36452,1.10101676,4.103393555,8.487521172
12.37452,0.980195701,4.087945938,8.465829849
12.38451844,0.869554877,4.071282387,8.472016335
12.39451844,0.798676908,4.06284523,8.520800591
12.40451844,0.730202734,4.044687748,8.657758713
12.41451844,0.656269789,4.037025928,8.845042229
12.42451844,0.573612392,4.046440125,8.922520638
12.43452,0.515768468,3.974920511,8.915068626
12.44452,0.590984702,3.895050049,8.971561432
12.45451844,0.703722894,3.851571321,9.110856056
12.46451844,0.775309503,3.95896554,9.136014938
12.47451844,0.71963954,4.112041473,9.070097923
12.48451844,0.631772339,4.179442883,8.910413742
12.49451844,0.591731727,4.208479881,8.750825882
12.50452,0.534328341,4.236012936,8.611895561
12.51451844,0.535458386,4.231348991,8.663324356
12.52451844,0.573238909,4.198060036,8.800806999
12.53451844,0.556422055,4.155337811,8.823074341
12.54451844,0.617330492,4.128446102,8.901239395
12.55451844,0.641282082,4.124079227,8.992247581
12.56451844,0.553271234,4.162606716,8.946739197
12.57452,0.516247332,4.177010536,8.851296425
12.58452,0.468372881,4.136385441,8.707510948
12.59451844,0.424003541,4.136117458,8.608198166
12.60451844,0.33418265,4.12404108,8.545786858
12.61451844,0.213639393,4.155041218,8.581260681
12.62451844,0.076556988,4.125037193,8.767749786
12.63451844,-0.021969194,4.097953796,9.00151825
12.64452,-0.100700118,4.017250061,9.107216835
12.65452,-0.052653283,3.927984715,9.245391846
12.66452,0.011597512,3.884525061,9.328480721
12.67451844,0.040203433,3.817133188,9.189760208
12.68451844,0.024775198,3.810917616,9.0623312
12.69451844,-0.018081011,3.842626572,8.990044594
12.70451844,-0.085137807,3.864241362,9.019552231
12.71452,-0.151514649,3.888049364,9.078410149
12.72452,-0.153583243,3.788182497,9.102993965
12.73452,-0.232036442,3.862393141,9.143791199
12.74451844,-0.291671216,3.891525745,9.156644821
12.75451844,-0.277037859,3.858705997,9.091330528
12.76451844,-0.232419521,3.833710432,9.096040726
12.77451844,-0.198421851,3.840251446,9.08489418
12.78451844,-0.208420038,3.86359024,9.053596497
12.79451844,-0.23465091,3.897501707,8.997199059
12.80452,-0.216933817,3.897750616,8.926235199
12.81451844,-0.184305638,3.934046745,8.873332977
12.82451844,-0.140769482,3.926710844,8.861629486
12.83451844,-0.13226527,3.937178373,8.898759842
12.84451844,-0.159607053,3.936220646,8.961180687
12.85451844,-0.164864719,3.891573668,9.026331902
12.86452,-0.168772057,3.866137505,9.046969414
12.87452,-0.247234836,3.85600543,8.049813271
12.88451844,-0.393606752,4.041986942,8.919817924
12.89451844,-0.261475533,3.799262762,9.047679901
12.90451844,-0.160296589,3.727245092,9.00398922
12.91451844,-0.11907801,3.659872293,9.371174812
12.92451844,-0.090788126,3.629197836,9.503697395
12.93452,-0.162164062,3.605428219,9.685063362
12.94452,-0.354542941,3.682454348,9.521002769
12.95451844,-0.80922097,3.736544132,9.236064911
12.96451844,-0.773068547,3.858054876,9.221611977
12.97451844,-0.567933321,3.965650082,8.997390747
12.98451844,-0.413507342,3.869623661,8.885831833
