Time (s),Acceleration x (m/s^2),Acceleration y (m/s^2),Acceleration z (m/s^2)
0,-3.083779573,6.434522152,5.068955898
0.010003125,-2.826220989,6.020373344,4.685787678
0.020003125,-2.981882334,6.602575779,5.308701515
0.030001563,-2.890845299,6.609260559,5.701264381
0.040001563,-2.725118637,6.644905567,6.050741196
0.050001563,-2.642231226,6.742052555,6.368920803
0.060001563,-2.674007177,6.865047455,6.730627537
0.07,-2.831018925,6.800748825,6.645623684
0.080001563,-3.028186083,6.792388439,6.727639675
0.090003125,-3.212405682,6.911179066,6.932008743
0.100001563,-3.235773087,6.870927811,6.915775776
0.110001563,-3.071645737,6.629113197,6.783626556
0.120001563,-3.029182196,6.56502533,6.545928955
0.130001563,-3.204102516,6.785167217,6.439817905
0.14,-3.435956955,7.062004089,6.547307968
0.150001563,-3.608760834,7.231302738,6.820457935
0.160001563,-3.444643259,7.144489288,7.133274555
0.17,-3.067355394,6.884574413,7.450563908
0.180001563,-2.635115862,6.641773701,7.632379532
0.190003125,-2.447937012,6.447029591,7.814405918
0.200004688,-2.301804543,6.192238331,8.032709122
0.210003125,-1.834284067,5.705440044,9.05429554
0.220004688,-2.749596834,6.140954494,8.694581032
0.230003125,-3.05864048,6.111554146,7.062923431
0.240003125,-3.494471312,6.002397537,8.116784096
0.250003125,-3.882714987,6.503666878,8.728234291
0.260003125,-3.186337471,6.315290928,7.951890469
0.270003125,-2.526198626,5.738460541,7.790837288
0.280003125,-2.19347167,5.459258556,8.011487007
0.290004688,-2.048909903,5.506874561,8.261930466
0.300003125,-2.177555084,5.609767437,8.373604774
0.310004688,-2.281779528,5.53975153,8.379676819
0.320003125,-2.266810894,5.439434528,8.618648529
0.330003125,-2.298778296,5.379091263,8.869990349
0.340003125,-2.177066565,5.343857765,8.694313049
0.350003125,-1.956733108,5.337843895,8.285068512
0.360003125,-2.1210711,5.464113712,8.166841507
0.370004688,-2.440428734,5.70565033,7.892188549
0.380004688,-2.80104351,5.99428606,7.679766655
0.390003125,-3.006992817,6.159983635,7.464115143
0.400003125,-3.125716448,6.240467548,7.384541512
0.410003125,-2.925187588,6.233744621,7.045014858
0.420003125,-2.681678295,6.106803894,7.058786392
0.430003125,-2.423535347,5.896823883,7.202419281
0.440003125,-2.26853466,5.880427361,7.16642952
0.450003125,-2.247475386,5.83679533,7.078840256
0.460003125,-2.259063244,5.766913414,7.165510178
0.470003125,-2.423315048,5.743900299,7.106842518
0.480003125,-2.599174023,5.813973904,6.948241234
0.490003125,-2.604814768,5.887169361,6.829957962
0.500007813,-2.504756212,6.127700329,6.803947449
0.510003125,-2.332258701,6.352017879,6.844227314
0.520003125,-2.113945961,6.425098419,6.823541641
0.530003125,-1.907096505,6.35454607,6.923121452
0.540003125,-1.885663629,6.358549118,7.017481327
0.550003125,-2.01210618,6.518520355,6.958660603
0.560003125,-2.117489338,6.716483593,6.908056736
0.570003125,-2.101103544,6.935829639,6.929395199
0.580004688,-1.995480895,7.106756687,6.966015816
0.590004688,-1.886755347,7.26418972,7.051163197
0.600003125,-1.872734904,7.428163528,7.153846741
0.610003125,-1.924459219,7.702165604,7.269801617
0.620003125,-2.081384897,8.045044899,7.28843832
0.630003125,-2.227297068,8.342739105,7.206699848
0.640003125,-2.226732016,8.413866043,6.896631718
0.650004688,-1.989217639,8.207391739,6.583681107
0.660003125,-1.862210035,7.95838356,6.641065121
0.670003125,-2.09842205,7.82723856,6.634581566
0.680003125,-2.62862277,7.598554134,6.52742672
0.690003125,-3.27725029,7.520177841,6.312484741
0.700003125,-4.18899107,7.60060358,6.504279613
0.710003125,-5.343771935,7.193349838,6.718723297
0.720004688,-5.300034523,6.734285831,7.746094704
0.730004688,-4.889859676,6.261383057,9.116047859
0.740003125,-5.441675663,5.277567387,9.48982048
0.750003125,-5.436752796,4.793708801,8.702482224
0.760003125,-5.049878597,4.166322708,7.704100132
0.770003125,-4.68706131,3.799032927,7.05789566
0.780003125,-4.216485977,3.572560549,6.59076786
0.790004688,-4.329358101,3.51543498,7.018651009
0.800004688,-4.461173534,3.215384007,7.89718771
0.810003125,-4.511470795,2.703398466,8.686173439
0.820003125,-4.56020689,2.217461586,9.112408638
0.830003125,-4.873608112,1.961531043,9.339205742
0.840003125,-5.053661823,1.690201044,9.133622169
0.850003125,-5.070497513,1.490802288,9.019129753
0.860003125,-4.979307175,1.875560045,9.213672638
0.870004688,-5.327357292,1.336041093,8.125538826
0.880003125,-5.097360611,0.437593013,7.869501114
0.890003125,-4.789351463,0.343204021,7.528634071
0.900003125,-4.62169981,0.810580909,6.716989994
0.910003125,-4.232392788,1.215986252,6.007741451
0.920003125,-3.935502291,1.426723838,5.498092651
0.930003125,-3.591790915,1.610215545,5.119454384
0.940004688,-3.277192831,1.877801061,4.707258701
0.950004688,-2.751904964,2.151170969,4.329233646
0.960003125,-2.375871658,2.301105499,4.18306303
0.970003125,-2.138721228,2.467694044,4.189268589
0.980003125,-1.866921782,2.733105659,4.210883617
0.990003125,-1.540592074,3.053191185,4.378105164
1.000003125,-1.036315799,3.366927385,4.435172081
1.010004688,-0.362922668,3.440391064,3.953813314
1.020004688,0.432297051,3.256392002,3.302159548
1.030003125,1.49441278,3.162941456,2.888652086
1.040003125,2.252417088,3.337430954,2.500963926
1.050003125,2.704327345,3.654825449,2.307282448
1.060003125,2.802844048,4.013122559,2.211457014
1.070003125,3.057644367,4.257369518,2.09394002
1.080003125,3.4612782,4.498963356,2.140789747
1.090004688,3.983482122,4.81606102,1.995375514
1.100003125,4.659758091,5.201278687,1.644490838
1.110003125,5.314754009,5.626441002,1.469560981
1.120003125,5.817756653,6.154247284,1.446136117
1.130003125,6.128064156,6.708629608,1.418047309
1.140003125,6.198970795,6.989162922,1.158764839
1.150004688,6.350906849,7.008086681,1.273667336
1.160004688,6.805364609,7.015930176,1.628871083
1.170003125,7.675819874,7.185986519,1.83332634
1.180003125,8.496763229,7.499185085,2.06460619
1.190003125,9.475992203,7.779038906,2.066061974
1.200003125,10.29185963,8.110808372,1.823663354
1.210003125,10.85330009,8.449367523,1.557849526
1.220004688,11.3381052,8.685875893,1.36029911
1.230004688,11.84065819,8.84581852,1.065209031
1.240003125,12.32304192,9.054602623,0.645926833
1.250003125,12.82288456,9.195428848,0.372068495
1.260003125,13.20821667,9.260216713,0.158103496
1.270003125,13.49362469,9.293916702,0.046121899
1.280003125,13.80026436,9.236351967,-0.015504849
1.290004688,13.95953751,9.182692528,-0.135789543
1.300004688,13.93797016,9.087086678,-0.169279635
1.310004688,13.72872543,8.98359108,0.001321599
1.320003125,13.41730785,8.728962898,0.278100878
1.330003125,13.09568977,8.337109566,0.736533046
1.340003125,12.83445454,8.033102036,1.339507937
1.350003125,12.45573807,7.73727417,1.757219434
1.360003125,11.80699635,7.402335167,1.982264876
1.370004688,11.14357185,7.063009739,2.203900814
1.380004688,10.29290295,6.610342503,2.515166283
1.390003125,9.424171448,6.14083004,2.87308979
1.400003125,8.508628845,5.807021141,3.192457199
1.410003125,7.633596897,5.630520344,3.587079048
1.420003125,6.85013628,5.532051563,4.077344418
1.430003125,6.225240231,5.418710232,4.446722031
1.440004688,5.888356686,5.30643177,4.329894543
1.450004688,5.701139927,5.132670403,4.235946178
1.460003125,5.436044216,4.938452721,4.421017647
1.470003125,5.029250145,4.786248207,4.624764442
1.480003125,4.545908928,4.668003559,4.853065968
1.490003125,3.912594795,4.665264606,5.244651794
1.500003125,3.245474339,4.770609379,5.65899229
1.510004688,2.767582178,4.852481842,6.053930283
1.520003125,2.415605783,4.994658947,6.310052395
1.530003125,2.412186861,5.136931896,6.451837063
1.540003125,2.494987965,5.2026577,6.549127579
1.550003125,2.548522234,5.295389652,6.442987919
1.560003125,2.427433014,5.467590332,6.219072819
1.570003125,1.99780798,5.808832169,6.045110226
1.580003125,1.517895103,6.005624771,5.90492487
1.590004688,0.919229746,6.158374786,5.767795563
1.600003125,0.552294433,6.290812492,5.712440491
1.610003125,0.449506551,6.38439703,5.856523514
1.620003125,0.447399676,6.357256413,6.09868288
1.630003125,0.403652817,6.273325443,6.389549255
1.640003125,0.245721698,6.142448902,6.748583794
1.650004688,-0.18285954,6.032832623,7.075526714
1.660004688,-0.864613235,6.081884861,7.302764893
1.670009375,-1.522779226,6.39078474,7.470426083
1.680003125,-1.917525649,6.691314697,7.743000984
1.690003125,-1.982858658,6.817470074,7.747205257
1.700003125,-1.960678697,6.879479885,7.682830334
1.710003125,-1.799137115,6.965153694,7.659424305
1.720004688,-1.714104652,7.150273323,7.646533966
1.730004688,-1.857411981,7.351405621,7.796009064
1.740003125,-2.11634016,7.479437828,7.978102207
1.750003125,-2.203958273,7.613120556,8.670045853
1.760003125,-2.189382553,7.775390148,9.350066185
1.77000625,-1.951695681,7.778962135,9.585474968
1.780003125,-1.577865005,7.672459602,9.912895203
1.790009375,-1.26666677,7.719499588,9.907053947
1.800004688,-0.724408805,7.750319004,9.687822342
1.810004688,-0.210306674,7.818016529,9.590798378
1.820003125,0.052030791,8.071802139,9.325110435
1.830003125,0.320612311,8.469747543,9.200533867
1.840003125,0.409044564,8.841299057,9.36813736
1.850003125,0.587010324,8.975413322,9.625149727
1.860001563,1.051523805,8.959763527,10.00304222
1.870007813,1.417070508,8.944631577,10.4336729
1.880003125,1.660024524,8.839286804,10.50945282
1.890003125,1.955382705,8.706131935,10.20251656
1.900003125,2.184268475,8.527313232,9.667374611
1.910003125,2.238683939,8.625322342,9.664693832
1.920003125,2.351536989,8.783377647,10.04070663
1.930003125,2.74251008,8.775409698,10.55823708
1.940003125,3.245435953,8.701706886,11.20857048
1.950004688,3.66561842,8.640454292,11.39379501
1.960003125,3.970668316,8.454194069,10.85947609
1.970004688,4.197073936,8.111536026,9.988311768
1.980003125,4.344288349,7.769031048,9.159343719
1.990003125,4.351375103,7.474123001,8.64945507
2.000003125,4.344757557,7.409958363,8.558170319
2.010004688,4.294584751,7.399988651,8.897122383
2.020004688,4.449662209,7.352488995,9.398122787
2.030003125,4.579494953,7.319141388,9.567775726
2.040003125,4.729869843,7.177854538,9.439734459
2.050003125,4.875896931,7.022834778,9.096606255
2.060003125,4.907366276,6.81886816,8.756620407
2.070004688,4.880685329,6.615514278,8.526040077
2.080004688,4.852433681,6.578327656,8.519882202
2.090003125,4.890501499,6.582207203,8.676490784
2.100003125,4.895720959,6.526784897,8.930707932
2.110003125,5.020152569,6.52495575,9.224123001
2.120007813,5.274703979,6.512467861,9.370158195
2.130003125,5.421085358,6.349987507,9.512526512
2.140003125,5.513827324,6.012835979,9.417420387
2.150004688,5.5426054,5.662430286,9.015193939
2.160004688,5.427597523,5.267607212,8.512239456
2.170003125,5.269934654,4.960019588,8.130957603
2.180003125,5.450601101,4.802538395,8.092803955
2.190003125,5.671030521,4.747663498,8.168977737
2.200003125,5.772889137,4.760621071,8.20403862
2.210003125,6.056669235,4.736334324,8.127607346
2.220010938,6.37271452,4.673519611,8.117981911
2.230004688,6.519181252,4.657641411,7.969963074
2.240003125,6.660458088,4.564602852,7.554414749
2.250003125,6.756830692,4.37566185,7.168316364
2.260003125,6.889622688,4.196336269,6.888970375
2.270003125,7.167857647,4.081376553,7.07861042
2.280003125,7.302956581,3.978617191,7.600134373
2.290004688,7.21919775,3.908275604,7.667641163
2.300003125,7.292374134,3.800019264,7.79001379
2.310004688,7.284780979,3.709710121,8.15692997
2.320003125,7.139509201,3.66526413,8.229158401
2.330003125,7.276217937,3.530958891,8.108020782
2.340003125,7.325404644,3.348664522,8.363884926
2.350003125,7.277462959,3.237908602,8.495240211
2.360001563,7.290286541,3.177345037,8.618810654
2.370004688,7.275921345,3.111197948,8.9460783
2.380003125,7.106518269,2.999992132,9.073392868
2.390003125,6.949601173,2.853055239,9.153865814
2.400003125,6.71336031,2.803868532,9.193599701
2.410003125,6.481218815,2.823788404,9.051911354
2.420003125,6.437251568,2.791265488,8.659884453
2.430003125,6.295639515,2.717409134,8.323078156
2.440004688,5.9425807,2.706003189,8.03956604
2.450004688,5.570694447,2.724361897,7.695126534
2.460003125,5.090321541,2.725635767,7.504155636
2.470003125,4.650957108,2.752575159,7.553045273
2.480003125,4.406910896,2.818214655,7.827861309
2.490003125,4.308902264,2.816576958,8.214706421
2.500003125,4.195215702,2.694089651,8.510840416
2.510003125,4.012739182,2.575165033,8.680397987
2.520004688,3.824411392,2.524666548,8.798470497
2.530003125,3.519706249,2.546721935,8.843080521
2.540003125,3.161476135,2.641120434,8.824174881
2.550003125,2.929918528,2.741140604,8.79943943
2.560003125,2.807316303,2.804002762,8.697483063
2.570003125,2.677483559,2.828864098,8.540816307
2.580004688,2.545467377,2.816165209,8.461415291
2.590004688,2.237649441,2.797643661,8.506521225
2.600003125,1.901446223,2.735691309,8.56323719
2.610003125,1.622646213,2.722025156,8.87988472
2.620003125,1.389422178,2.778901815,9.314325333
2.630003125,1.091277122,2.939045191,9.729834557
2.640003125,0.899539828,3.074509144,10.14748859
2.650004688,0.832396865,3.107405424,10.45420551
2.660004688,0.717456043,3.084315777,10.63663483
2.670003125,0.485534519,3.069366455,10.80274296
2.680003125,0.138624266,3.153029442,10.93892479
2.690003125,-0.328905851,3.280065775,10.98054695
2.700003125,-0.849692583,3.468633175,11.09852219
2.710003125,-1.26095891,3.677761793,11.33462048
2.720004688,-1.495648146,3.881575346,11.65144062
2.730004688,-1.625145793,3.998527288,11.78315926
2.740004688,-1.543551326,4.028943539,11.7063818
2.750003125,-1.492717624,4.044984341,11.45290375
2.760003125,-1.500877142,4.167203426,11.0613842
2.770003125,-1.600380063,4.354870796,10.69078159
2.780003125,-1.694769144,4.493648052,10.4157629
2.79000625,-1.585047603,4.406106472,10.41236401
2.800004688,-1.384059191,4.197600365,10.49763584
2.810004688,-1.327230453,3.990578651,10.70218658
2.820003125,-1.371293306,3.95037508,11.05425835
2.830003125,-1.643360853,4.012174129,11.3793354
2.840003125,-2.072851896,4.094927311,11.56617737
2.850003125,-2.451949835,4.068265438,11.65186119
2.860001563,-2.674572229,3.964261532,11.53365517
2.870004688,-2.708694458,3.645593405,11.25761414
2.880003125,-2.690297365,3.25634408,11.01312733
2.890003125,-2.690479279,3.044955254,10.70522308
2.900003125,-2.732205391,2.877571821,10.4511404
2.910003125,-2.902299166,2.77581811,10.38377762
2.920003125,-3.073465347,2.704423189,10.4963522
2.930003125,-3.112749338,2.532778025,10.82803631
2.940003125,-3.047138691,2.274060488,11.26863575
2.950004688,-2.98847127,2.057165146,11.50158215
2.960003125,-2.969997406,1.898237944,11.45676231
2.970003125,-3.074557066,1.762371778,11.26353264
2.980003125,-3.290820599,1.744175911,10.88297749
2.990003125,-3.509315252,1.818300366,10.35726833
3.000003125,-3.743362904,1.885309219,9.894497871
3.010004688,-3.878367186,1.91273725,9.589707375
3.020004688,-3.775847435,1.906694293,9.404931068
3.030003125,-3.469083309,1.750075221,9.257018089
3.040003125,-3.137160778,1.573593736,9.042450905
3.050003125,-2.94633317,1.489068866,8.803910255
3.060003125,-2.942693949,1.500656843,8.567075729
3.070003125,-2.978559256,1.476437092,8.333707809
3.080004688,-2.945385218,1.440744281,8.148895264
3.090003125,-2.751358986,1.333608627,7.98679781
3.100003125,-2.491664648,1.213936806,7.820008278
3.110003125,-2.310739756,1.174940109,7.674297333
3.120003125,-2.116301775,1.178885698,7.551608562
3.130003125,-1.952998161,1.12431705,7.463080883
3.140003125,-1.78947413,1.065352678,7.364966393
3.150004688,-1.583247185,1.089419246,7.304852962
3.160004688,-1.27914536,1.226453662,7.299451351
3.170003125,-0.851780295,1.360452414,7.296635628
3.180003125,-0.247493401,1.458222032,7.308195114
3.190003125,0.411477059,1.532451868,7.255350113
3.200003125,0.915533125,1.653416514,7.119924545
3.210003125,1.368104219,1.82318449,6.966772556
3.220004688,1.701961279,1.952682137,6.75558567
3.230003125,2.049675941,2.055441141,6.479015827
3.240003125,2.448004007,2.154877186,6.121130943
3.250003125,2.899090767,2.207913637,5.697519779
3.260003125,3.269090652,2.307186842,5.268593788
3.270003125,3.602114677,2.423794031,5.023149967
3.280003125,3.953066349,2.585163116,4.881202221
3.290004688,4.34265089,2.779773474,4.846017361
3.300004688,4.821615696,2.874985933,4.80934763
3.310003125,5.354210377,2.907978058,4.804540157
3.320003125,5.744455814,3.016674757,4.969261169
3.330003125,6.051507473,3.135503769,5.437413692
3.340003125,6.336742878,3.294929028,5.794398785
3.350045313,6.715313911,3.47375679,5.945837021
3.360001563,7.147304535,3.551750183,6.109198093
3.370004688,7.481726646,3.639205694,6.129261494
3.380003125,7.852828026,3.894752979,6.023887634
3.390003125,8.005558968,4.246145248,6.185678482
3.400003125,7.821617126,4.518136024,6.57764864
3.410003125,7.903134823,4.639704227,6.742990971
3.420003125,7.97491312,4.623318195,6.858420372
3.430003125,8.489264488,4.532665253,6.69122839
3.440003125,9.442703247,4.538659096,6.316583633
3.450003125,10.08487606,4.642921925,6.013296127
3.460003125,10.4347353,4.514353275,5.649204731
3.470003125,10.27538681,4.737904549,5.717707634
3.480003125,9.568455696,5.726336479,5.887169361
3.490003125,9.070691109,6.224311352,5.84552002
3.500003125,9.256941795,6.095799923,5.649903774
3.510004688,9.722316742,5.83858633,5.207331181
3.520004688,10.13850689,5.782217026,4.806886673
3.530003125,9.962983131,6.002081394,4.464343071
3.540003125,9.434658051,6.245964527,4.04310751
3.550003125,8.765354156,6.42022419,3.868091345
3.560003125,8.271410942,6.530673504,3.889658213
3.570003125,7.820611477,6.686181545,3.941803932
3.580004688,7.683883667,6.759147167,4.076396465
3.590004688,7.834095955,6.704147339,4.420165539
3.600003125,7.801544189,6.530979633,4.681794167
3.610003125,7.511922359,6.35800457,4.874642372
3.620003125,7.061898708,6.252907753,4.975285053
3.630003125,6.623443604,6.130525589,4.842674732
3.640003125,6.06140995,6.071925163,4.85404253
3.650004688,5.390171528,6.1372962,5.178303719
3.660004688,4.818646908,6.312934875,5.50676918
3.670004688,4.59116888,6.382616043,5.943002224
3.680003125,4.496923447,6.307983875,6.470013618
3.690003125,4.52605629,6.177164555,6.876654625
3.700003125,4.375499249,6.164733887,7.44098711
3.710003125,4.197906971,6.098567963,7.58578825
3.720004688,3.94947505,5.966197014,7.661876202
3.730004688,3.74116993,5.869576931,8.016495705
3.740003125,3.308777094,5.901180267,8.542157173
3.750003125,2.833939791,6.035810947,8.866514206
3.760003125,2.449507713,6.163038731,8.953194618
3.770003125,2.158123732,6.140954494,8.984097481
3.780003125,1.897778273,6.008564949,9.089347839
3.790004688,1.601347327,5.804578781,9.040697098
3.800004688,1.369674802,5.561720848,9.182242393
3.810004688,1.021634579,5.365884781,9.609511375
3.820003125,0.432258725,5.456031322,10.07063484
3.830003125,-0.076777257,5.767114639,10.43636322
3.840003125,-0.405472398,6.119205952,10.38720608
3.850003125,-0.690832496,6.363222599,10.14135933
3.860001563,-0.890805781,6.533575058,9.666619301
3.870004688,-0.818558395,6.538392067,9.178938866
3.880003125,-0.575355351,6.198721886,9.013010979
3.890003125,-0.591358244,5.783203602,8.923362732
3.900003125,-0.640937328,5.558665752,8.80329895
3.910003125,-0.859681189,5.619909286,9.325176239
3.920003125,-1.345014572,5.842981815,9.51471138
3.930003125,-1.722877026,6.005500317,9.564021111
3.940004688,-1.661958933,6.040101528,9.726980209
3.950004688,-1.383312225,6.031405449,9.914321899
3.960003125,-1.020312905,6.048126698,10.09338093
3.970003125,-0.263534546,6.096556664,10.39776897
3.980003125,0.549277723,6.184825897,10.65257072
3.990003125,1.11670351,6.320625305,10.56723022
4.000003125,1.552582264,6.503915787,10.35369587
4.010004688,1.715320945,6.733003616,9.725236893
4.020004688,1.659133792,6.893548012,9.12424469
4.030003125,1.790834069,6.933904648,8.678473473
4.040003125,1.83585465,6.883856297,8.252037048
4.050003125,1.743323565,6.697329044,7.899265766
4.060003125,2.0239048,6.153126717,8.470647812
4.070003125,2.53420496,6.004437447,9.367035866
4.080004688,2.270191431,5.648266315,9.514558792
4.090004688,2.227795124,5.066130638,9.558179855
4.100003125,2.267931461,4.72604847,10.83979607
4.110003125,2.343166828,4.715322495,10.81509781
4.120003125,2.574350834,4.83261919,10.25371456
4.130003125,3.161102772,4.804913521,9.773551941
4.140003125,3.614353657,4.803860188,9.285643578
4.150004688,4.14157629,4.846591949,8.815958023
4.160004688,4.432366371,4.990109921,8.643959999
4.170003125,3.752029896,4.808332443,6.669259071
4.180003125,4.801724434,4.002415657,7.771903992
4.190003125,5.456251144,13.08210945,-4.581879139
4.200003125,9.772854805,6.752520084,13.48629856
4.210003125,9.590960503,4.692941666,9.049239159
4.220004688,7.859158516,2.828663111,6.477272987
4.230003125,4.574198723,3.170507193,9.365656853
4.240004688,4.331436157,4.947943211,10.18685818
4.250003125,4.651014328,5.331015587,11.43579865
4.260003125,4.794771671,4.878568649,11.13394737
4.270003125,4.867823601,3.548407793,10.01548195
4.280003125,3.853658915,2.325277328,8.368548393
4.290004688,3.973091364,2.173676491,8.669184685
4.300004688,3.713148117,2.771929979,9.633769989
4.310004688,3.213133574,2.101745129,11.94764996
4.320003125,2.868042946,2.583697796,11.35872459
4.330003125,2.457283974,2.921462297,10.82500935
4.340003125,2.267615318,3.197513819,11.25048828
4.350003125,2.148719311,3.200242996,10.80235195
4.360001563,2.466707706,3.100357056,9.581231117
4.370004688,2.998038292,3.355760813,8.068296432
4.380004688,3.418584585,3.657803774,6.791756153
4.390003125,2.963264942,3.458836079,5.40696907
4.400015625,3.214071989,4.177355289,2.323448181
4.41000625,2.675050974,4.652719021,4.636189461
4.420003125,2.746484518,4.661998749,5.369964123
4.430003125,2.526581764,4.429675102,6.038741589
4.440003125,1.790527582,4.048374653,6.907310009
4.450003125,0.950488448,3.579120636,8.275893211
4.460003125,1.31372714,2.617408276,12.00974751
4.470003125,0.247799858,2.245569468,11.3089838
4.480003125,-1.034314275,2.075638771,9.971495628
4.490003125,-1.548521757,2.85827446,12.3358469
4.500003125,-0.792882979,5.622705936,8.794583321
4.510004688,-1.384365678,6.956084728,7.43397665
4.520003125,-2.011378288,7.37872839,6.646456718
4.530003125,-2.578057051,7.006324291,6.108316898
4.540003125,-2.634292126,6.27086401,6.131119251
4.550003125,-2.27557373,5.293752193,6.56719923
4.560003125,-1.755993605,4.261027813,6.774154186
4.570003125,-1.479645371,3.461833477,7.233591557
4.580004688,-1.584913611,3.100596428,7.821205616
4.590004688,-2.00185895,3.230132341,8.284943581
4.600003125,-2.890873909,3.792463303,8.553621292
4.610003125,-3.896084309,4.568318844,8.809905052
4.620003125,-4.711032391,5.2853055,9.155925751
4.630003125,-5.09307003,5.781297684,9.345737457
4.640003125,-4.845816135,6.038022995,9.401274681
4.650004688,-4.437221527,6.254439831,9.538365364
4.660004688,-3.957873821,6.408492565,9.553276062
4.670003125,-3.633354187,6.420204639,9.553947449
4.680003125,-3.48952961,6.291770458,9.551054001
4.690003125,-3.395820618,6.082018852,9.358179092
4.700003125,-3.274999619,5.759730816,8.895044327
4.710003125,-3.001600981,5.540948868,8.45541954
4.720004688,-2.8067801,5.575511456,8.120106697
4.730004688,-2.312243223,5.390947342,8.494148254
4.740003125,-1.544441938,4.791956425,9.33127594
4.750003125,-0.594595194,4.051084995,10.53667068
4.760003125,0.123330116,3.418642044,11.59859467
4.770003125,0.560990155,2.973904848,12.172925
4.780003125,1.007805586,2.778988123,11.91020489
4.790003125,1.072908759,2.834983587,11.22984982
4.800004688,0.689395964,3.037111759,10.2573452
4.810004688,0.483082831,3.536628485,9.283268929
4.820003125,0.404016733,3.959147453,9.351062775
4.830003125,0.149829134,3.73154521,10.11908436
4.840003125,0.151035815,3.110086918,10.61562252
4.850003125,0.206820711,2.68977046,10.87433052
4.860003125,0.283521354,2.607295036,10.93343925
4.870004688,0.537661076,2.523000002,10.70384407
4.880003125,0.80902946,2.32152319,10.12142944
4.890003125,1.352417469,2.167978287,9.671981812
4.900003125,1.791427851,1.686293602,10.36372375
4.910003125,1.659373283,0.850793898,11.73209572
4.920003125,1.442583084,0.070255451,12.79282284
4.930003125,1.291030169,-0.310470492,13.28920841
4.940004688,1.360720515,-0.330150813,13.47101498
4.950004688,1.366332531,-0.439805269,13.23699474
4.960003125,1.466352701,-0.646731317,12.45587349
4.970003125,1.950919986,-0.784934223,11.34999084
4.980003125,2.146162271,-0.735307217,10.19402218
4.990003125,2.093738794,-0.701050937,9.624192238
5.000003125,2.544385195,-0.60830915,10.06849861
5.010004688,2.657439232,-1.039016485,10.67715359
5.020004688,2.144543886,-1.767351747,10.92272282
5.030003125,1.730931163,-2.138261557,11.03875351
5.040003125,1.355233073,-2.083386421,10.95396233
5.050003125,0.991639972,-1.83482039,10.72782326
5.060003125,0.68690604,-1.594136,10.46375275
5.070003125,0.436099023,-1.49055326,9.911372185
5.080004688,0.290943384,-1.439039707,9.188074112
5.090004688,0.129516736,-1.340762496,8.526451111
5.100003125,-0.189879343,-1.159358621,7.894065857
5.110003125,-0.713989198,-0.942530155,7.302295685
5.120003125,-1.339440823,-0.716440916,6.891603947
5.130003125,-1.997501493,-0.505990565,6.612861633
5.140003125,-2.529933691,-0.320497394,6.427109718
5.150004688,-2.854328871,-0.04579629,6.293465137
5.160003125,-3.088223219,0.082801066,6.13979578
5.170003125,-3.384634972,0.068177283,6.238025188
5.180003125,-3.910688877,-0.03727293,6.642271996
5.190003125,-4.557927608,-0.140673712,7.030448437
5.200003125,-5.247918606,-0.157155395,7.273938656
5.210003125,-5.967087746,-0.059424084,7.468549252
5.220004688,-6.597998142,0.217719123,7.634582043
5.230003125,-7.038493156,0.561152995,7.66522789
5.240003125,-7.20123148,0.861749768,7.746841431
5.250003125,-7.079117775,0.914403081,7.891479969
5.260003125,-6.837294102,0.79554528,7.92247057
5.270003125,-6.77599287,0.485438734,7.769078732
5.280003125,-7.114312649,0.33820492,7.474133492
5.290003125,-7.5752635,0.608548582,7.324532986
5.300004688,-8.015049934,1.024842739,7.454845905
5.310004688,-8.307659149,1.375526309,7.603227615
5.320003125,-8.393631935,1.559295654,7.946460247
5.330003125,-8.327895164,1.703838348,8.340354919
5.340003125,-8.278497696,1.944867373,8.452729225
5.350003125,-8.233611107,2.201305628,8.214256287
5.360001563,-8.029799461,2.353883266,7.717881203
5.370004688,-7.596448421,2.456336021,7.150589466
5.380004688,-7.033771515,2.465079546,6.685587883
5.390003125,-6.506041527,2.3267138,6.44763279
5.400003125,-6.10746479,2.276665449,6.552393436
5.410003125,-5.735616207,2.488533258,7.058786392
5.420003125,-5.486131191,2.612351656,7.650586128
5.430003125,-5.363423347,2.685068369,7.990398884
5.440004688,-5.192783833,2.804347515,8.153214455
5.450004688,-5.205128193,2.904214382,8.19629097
5.460003125,-5.598917007,3.082151413,8.114792824
5.470003125,-5.98581028,3.367147684,8.2570858
5.480003125,-6.196212769,3.478027821,8.505066872
5.490003125,-6.233534813,3.353194237,8.768734932
5.500003125,-5.939784527,3.199840784,9.043905258
5.510004688,-5.434339523,3.144056082,9.367697716
5.520004688,-4.976386547,3.336636066,9.636269569
5.530003125,-4.778644562,3.766165257,9.525551796
5.540003125,-4.852213383,4.129538059,9.149127007
5.550003125,-4.976788521,4.414888382,8.925065994
5.560003125,-5.241606236,4.537653446,8.963852882
5.570003125,-5.591025829,4.498436451,9.293524742
5.580004688,-5.883923054,4.292755604,9.785993576
5.590004688,-5.824642181,3.887254477,10.18050957
5.600003125,-5.477396965,3.458318949,10.45379257
5.610003125,-4.761463642,3.434319496,10.87115002
5.620003125,-3.892512083,3.626966476,11.01315498
5.630003125,-3.350110531,3.649471998,10.73972797
5.640003125,-3.015410662,3.443244934,10.46903992
5.650004688,-2.639492273,3.164205551,10.45439625
5.660004688,-2.346997499,2.824267149,10.5361824
5.670004688,-2.238789082,2.593734264,10.54289532
5.680003125,-2.124365568,2.348587275,10.54583549
5.690003125,-1.935223579,2.016760588,10.80118275
5.700003125,-1.797796369,1.746665835,11.08562279
5.710003125,-1.67999208,1.482547045,11.26484394
5.720004688,-1.626869559,1.319214702,11.44443703
5.730003125,-1.698456168,1.376551032,11.55074024
5.740003125,-1.840987802,1.534108639,11.41587925
5.750003125,-1.976116538,1.655121088,11.13834381
5.760003125,-2.225803137,1.800200224,10.88389778
5.770003125,-2.426733971,1.97418201,10.70922565
5.780003125,-2.529090881,2.12898159,10.57377148
5.790003125,-2.564343214,2.265834093,10.42849255
5.800004688,-2.586044073,2.354026794,10.23424625
5.810003125,-2.56062746,2.386032581,10.12758732
5.820003125,-2.517340183,2.344584227,10.20382881
5.830003125,-2.502974987,2.360922098,10.24494267
5.840003125,-2.4526968,2.361305237,10.23227215
5.850003125,-2.282104969,2.271723747,10.29127407
5.860001563,-2.213449001,2.19292593,10.43847084
5.870004688,-2.291969299,2.27916503,10.54444695
5.880003125,-2.348529816,2.421945572,10.47856808
5.890003125,-2.374138117,2.551634789,10.42499638
5.900003125,-2.339431763,2.60589695,10.35713577
5.910003125,-2.315767527,2.694137573,10.20616627
5.920003125,-2.280323744,2.72277236,10.0531292
5.930003125,-2.29604888,2.747509241,10.0112009
5.940004688,-2.541684389,2.816902637,9.99136734
5.950004688,-2.857929707,3.022334814,10.06917858
5.960003125,-3.03490901,3.090847254,10.32603931
5.970003125,-3.03776288,2.951878309,10.53669071
5.980003125,-3.007643938,2.801033974,10.60308552
5.990003125,-2.925656796,2.736457586,10.54661083
6.000003125,-2.729217529,2.648638248,10.30596542
6.010004688,-2.512609243,2.547411442,9.934117317
6.020004688,-2.173743486,2.402045012,9.580897331
6.030003125,-1.666144013,2.169845819,9.351981163
6.040003125,-1.075178504,1.886439323,9.25532341
6.050003125,-0.372480303,1.567780614,9.073307037
6.060003125,0.13579911,1.067976713,8.836893082
6.070003125,0.886161029,1.238558769,8.807644844
6.080004688,1.277086258,1.327843308,8.81529808
6.090003125,1.315632939,1.341720104,8.810250282
6.100003125,1.357780457,1.312328935,8.727295876
6.110003125,1.468545794,1.333407521,8.564662933
6.120003125,1.668346763,1.302704215,8.232328415
6.130003125,1.841437936,1.305663466,8.137613297
6.140003125,1.925704241,1.372088194,8.431889534
6.150004688,1.997520685,1.513336539,9.002350807
6.160004688,1.95879209,1.723212242,9.499224663
6.170004688,1.876316667,1.982351065,9.835189819
6.180003125,1.664324403,2.303001642,9.86313343
6.190003125,1.407455325,2.511124849,9.581355095
6.200003125,1.212174654,2.665771008,9.273374557
6.210003125,1.125111938,2.800842285,9.158730507
6.220004688,1.160929203,2.894532204,9.184521675
6.230004688,1.262213469,2.90481782,9.339349747
6.240003125,1.267586112,2.890988827,9.567575455
6.250003125,1.127103925,3.037695885,9.882049561
6.260003125,0.92998451,3.248491049,10.13760662
6.270003125,0.787385881,3.335534573,10.08837223
6.280003125,0.658319235,3.200846434,9.778982162
6.290003125,0.629502654,3.048642159,9.260877609
6.300003125,0.756079316,2.965237856,8.672402382
6.310003125,1.051475883,2.876604557,8.120250702
6.320003125,1.632864594,2.678019762,8.116477966
6.330003125,2.31980896,2.213889599,8.528452873
6.340003125,2.832522392,1.754470944,8.861332893
6.350003125,3.129671574,1.381291509,8.905932426
6.360001563,3.306516886,1.262385845,8.775122643
6.370004688,3.437661648,1.272814989,8.529190063
6.380003125,3.406431675,1.256898403,8.14887619
6.390003125,3.364255428,1.261035562,7.715027332
6.400003125,3.31240654,1.45124054,7.630062103
6.410003125,3.137179852,1.54318738,8.005942345
6.420003125,2.793276787,1.590142488,8.701026917
6.430003125,2.316313505,1.770981312,9.297873497
6.440004688,1.953515291,2.019039869,9.545911789
6.450004688,1.742538214,2.189210176,9.483585358
6.460003125,1.718787789,2.242188931,9.118422508
6.470003125,1.901091814,2.210805655,8.684420586
6.480003125,2.233177185,2.131059647,8.22900486
6.490003125,2.492430925,1.967526197,8.043981552
6.500003125,2.37970233,1.805304646,8.437338829
6.510004688,1.979832292,1.776756167,9.092708588
6.520004688,1.46083653,1.807842493,9.62963295
6.530003125,0.963302255,1.878816247,10.12853622
6.540003125,0.641569436,1.999436021,10.56352425
6.550003125,0.470891565,1.978118062,10.52445221
6.560003125,0.54773587,1.854816675,9.86063385
6.570003125,1.044255018,1.706922054,8.961650848
6.580004688,1.561977148,1.473746061,8.645692825
6.590004688,1.779370666,1.291020513,9.136512756
6.600003125,1.735700369,1.209541082,10.03418541
6.610003125,1.494747996,1.155365109,10.89330292
6.620003125,1.0315274,1.069461107,11.2828474
6.630003125,0.534500718,1.067708611,11.19155216
6.640003125,0.227056503,1.177774787,10.79612637
6.650004688,0.337065279,1.226846337,10.10359859
6.660004688,0.902518213,1.128779888,9.307851791
6.670003125,1.460951447,1.041602254,8.863306046
6.680003125,1.562743306,1.022410274,9.119046211
6.690003125,1.239794254,1.04449439,9.791040421
6.700003125,0.865685821,1.072583199,10.39082623
6.710003125,0.529539943,1.048976302,10.61041164
6.720004688,0.274385095,0.956416488,10.35037327
6.730004688,0.303335756,0.845268071,9.557135582
6.740003125,0.813817859,0.847940028,8.502279282
6.750003125,1.304696202,0.747421861,7.850462437
6.760003125,1.327517748,0.538771987,8.152217865
6.770003125,0.953074217,0.536732137,9.235785484
6.780003125,0.457302094,0.757822275,10.32627869
6.790003125,-0.123109847,0.890901566,10.92465591
6.800004688,-0.644720197,0.851282299,10.85381603
6.810003125,-0.771220207,0.693121374,10.00793552
6.820003125,-0.312807232,0.724437535,9.164563179
6.830003125,0.361438245,0.974449635,8.605650902
6.840003125,0.719572484,1.140415668,8.509634972
6.850003125,0.822982848,1.202320218,8.708218575
6.860001563,0.721238852,1.165794253,9.175357819
6.870004688,0.37700057,0.934514344,9.707386971
6.880003125,-0.003974375,0.664764464,10.07479095
6.890003125,-0.126260608,0.560310185,10.35510349
6.900003125,-0.031354465,0.626830697,10.48761845
6.910003125,0.11001835,0.590237737,10.09253693
6.920003125,0.380026817,0.627797961,9.712644577
6.930003125,0.475507587,0.766403079,9.769512177
6.940004688,0.223915309,0.651577175,9.90632534
6.950003125,-0.182782933,0.674523234,10.25184631
6.960003125,-0.716536641,0.809469998,10.68495941
6.970003125,-1.371006012,0.731447756,10.65536594
6.980003125,-1.577845931,0.863205433,10.42291832
6.990003125,-1.441414714,1.170228243,10.36344528
7.000003125,-1.458911538,1.069892049,10.15020943
7.010004688,-1.404658914,0.869698524,10.0337553
7.020004688,-1.229872584,0.942175806,10.33224392
7.030003125,-1.525987506,0.925923944,10.5864315
7.040003125,-1.918837667,1.103746057,10.81868839
7.050003125,-2.280611038,1.561115265,11.0331707
7.060003125,-2.771211624,1.689530611,11.00208378
7.070003125,-3.142954588,1.672493458,10.74170971
7.080004688,-3.340619802,1.653224945,10.58645153
7.090003125,-3.545822144,1.531992197,10.46512318
7.100003125,-3.818646193,1.634109616,10.59016705
7.110003125,-4.000078678,2.167748451,10.95721817
7.120003125,-4.360827446,2.557323456,11.17196751
7.130003125,-4.868666649,2.738909245,11.18395805
7.140003125,-5.280172348,2.721891165,11.10686398
7.150004688,-5.581927776,2.50383687,10.84689236
7.160004688,-5.634016037,2.407906055,10.65449429
7.170003125,-5.511844635,2.370336294,10.70651531
7.180003125,-5.467877388,2.339470148,11.01860428
7.190003125,-5.415846825,2.51115346,11.53261089
7.200003125,-5.368882179,2.555197239,11.76257801
7.210003125,-5.62661314,2.304562807,11.92411995
7.220004688,-5.786258698,2.097885609,12.32029438
7.230004688,-5.835379124,1.999665856,12.8797617
7.240004688,-5.786967278,1.878107548,13.36073685
7.250003125,-5.390048027,1.934285045,13.52082348
7.260003125,-4.885885715,2.152013779,13.23002243
7.270003125,-4.649051189,2.14991641,12.58652973
7.280003125,-4.529714584,2.135580063,11.91686153
7.290003125,-4.48212719,2.339336157,11.51161957
7.300004688,-4.572532177,2.557438374,11.21084976
7.310004688,-4.543006897,2.789647102,10.95840549
7.320003125,-4.309840679,2.974690199,10.83019924
7.330003125,-4.094889164,3.036431789,10.64300156
7.340003125,-3.943374634,3.07389617,10.51067924
7.350003125,-3.719267607,3.225315094,10.33370018
7.360001563,-3.50328207,3.402955294,9.966822624
7.370004688,-3.40312767,3.625549078,9.471796989
7.380004688,-3.379482508,3.792597294,8.962042809
7.390003125,-3.389451981,3.901581287,8.50037384
7.400003125,-3.195186615,3.955192327,8.175748825
7.410003125,-2.854300022,3.91375351,7.883885384
7.420003125,-2.57322073,3.880359173,7.660142899
7.430003125,-2.392851353,4.032841206,7.61289072
7.440004688,-2.367281199,4.178111553,7.645480633
7.450004688,-2.407656908,4.269809723,7.584418774
7.460003125,-2.447094202,4.324100494,7.349710464
7.470003125,-2.435573339,4.287124634,6.938827038
7.480003125,-2.340494871,4.212406158,6.438774109
7.490007813,-2.152875662,4.005317211,6.06418705
7.500003125,-2.007930756,3.697585821,5.982161522
7.510004688,-1.705543041,3.525452375,5.86803484
7.520004688,-1.343348265,3.487805843,5.849206924
7.530003125,-1.08688128,3.560560942,5.811800003
7.540003125,-0.998190522,3.610609293,5.84062624
7.550003125,-1.066923261,3.604183197,5.860306263
7.560003125,-1.310901999,3.524647713,5.73903513
7.570003125,-1.849606872,3.516344786,5.564076424
7.580004688,-0.73750031,3.022478342,5.918916702
7.590004688,-0.505904377,2.410415173,5.725848198
7.600003125,-0.087838471,2.217499971,5.103595257
7.610003125,0.316197425,2.260145426,5.055490971
7.620003125,0.64052552,2.588150978,5.40028429
7.630003125,0.636599064,3.096162319,5.510878563
7.640003125,0.268667728,3.668184996,5.388007164
7.650004688,-0.326827675,4.089938164,5.362752914
7.660004688,-0.976441622,4.267520905,5.322262287
7.670004688,-1.452504635,4.243434906,5.132957458
7.680003125,-1.606624246,4.027899265,5.048796654
7.690003125,-1.453050494,3.638219118,4.999064445
7.700003125,-1.162557244,3.598618984,4.995482445
7.710003125,-0.911003292,4.200080872,5.083062172
7.720003125,-0.663184285,4.997618198,5.291520596
7.730004688,-0.493186384,5.489339352,5.591820717
7.740004688,-0.511602581,5.692789078,5.933655262
7.750003125,-0.774112403,5.517341614,6.165059566
7.760003125,-1.206553102,5.191701889,6.31338501
7.770003125,-1.530297041,4.873703957,6.391867161
7.780003125,-1.618135571,4.556146622,6.272838116
7.790003125,-1.320507526,4.438342094,6.086979866
7.800004688,-0.676428974,4.426744461,5.976425171
7.810004688,0.060017847,4.571957588,6.094583988
7.820003125,0.703234494,4.747050762,6.235133171
7.830003125,1.118005991,4.655984879,6.417045593
7.840003125,1.206093431,4.10430336,6.76441431
7.850003125,0.850841761,3.497976542,7.067549229
7.860001563,0.443396568,3.173743963,7.283869743
7.870003125,0.429893255,3.171828747,7.541945934
7.880003125,0.909949839,3.824478388,7.667181492
7.890003125,1.140157104,4.526247501,7.647462845
7.900003125,1.233243704,4.72501421,7.765861034
7.910003125,1.392448545,4.766022205,8.032201767
7.920003125,1.341614842,4.542863369,8.159946442
7.930003125,1.128712773,4.15142107,8.11935997
7.940004688,1.14220655,3.797318697,8.081895828
7.950004688,1.39675808,3.419523239,8.078515053
7.960003125,1.847509623,3.061561346,8.014074326
7.970003125,2.686026096,3.157099485,7.966820717
7.980003125,3.33983469,3.523412466,7.954648495
7.990003125,3.872965813,4.083415985,7.896718502
8.000003125,4.090560436,4.869997501,7.666846275
8.010004688,3.865428925,5.354689121,7.499146938
8.020004688,3.222700596,5.354899883,7.564518452
8.030003125,2.42352581,5.287737846,7.87818718
8.040003125,1.806453824,5.359228611,8.450258255
8.050003125,1.378610015,5.391492844,9.112734795
8.060003125,1.243471742,5.256230354,9.633090019
8.070003125,1.501624107,5.376198769,9.91300106
8.080004688,1.936631322,6.018878937,9.962809563
8.090004688,2.237151623,6.418586254,9.738607407
8.100003125,2.527386189,6.410676003,9.445240021
8.110003125,2.799961329,6.362849236,9.262889862
8.120003125,2.842645168,6.20510006,9.261681557
8.130003125,2.630949736,5.972086906,9.215214729
8.140003125,2.379778862,5.859626293,9.246120453
8.150004688,1.842127442,5.718924046,9.423491478
8.160004688,0.976824701,5.633470058,9.762223244
8.170004688,0.350128055,5.584753036,10.44286537
8.180003125,-0.126567081,5.404488564,11.1675539
8.190003125,-0.577079177,5.148050785,11.5887022
8.200003125,-0.850975871,4.9264431,11.59488869
8.210003125,-1.060545087,4.821462154,11.23451328
8.220003125,-1.045959592,4.891181469,10.54348946
8.230004688,-0.980866075,4.849704266,10.16141319
8.240004688,-1.023501992,4.709825516,10.24997902
8.250003125,-1.218073964,4.66427803,10.64169979
8.260003125,-1.6389364,4.655352592,11.35993195
8.270003125,-2.184900522,4.639205933,12.26903915
8.280003125,-2.75689435,4.618807316,13.04983616
8.290003125,-3.292927504,4.646551609,13.67427254
8.300004688,-3.751646757,4.746849537,13.94606113
8.310004688,-3.709853649,4.920668602,13.34419918
8.320003125,-3.004857063,4.997934341,12.00332928
8.330003125,-1.991046786,4.798621655,10.58593464
8.340045313,-1.100442052,4.451041222,9.589007378
8.350003125,-0.645132005,4.125975609,9.46201992
8.360001563,-0.794463158,3.877716064,9.952801704
8.370004688,-1.372365952,3.841142178,10.66242313
8.380003125,-2.002280474,3.911560297,11.2305584
8.390003125,-2.716710091,4.005374908,11.60102749
8.400003125,-3.195626974,4.07755518,11.52335072
8.410003125,-3.251814127,4.04838419,11.10462284
8.420003125,-3.001294613,3.972296476,10.85665035
8.430003125,-2.766270161,3.757986784,10.72699165
8.440004688,-2.691082716,3.490372419,10.73034191
8.450004688,-2.832694769,3.342046976,10.84500504
8.460003125,-3.387124777,3.339097261,11.25833035
8.470003125,-3.892349243,3.5709517,11.44141102
8.480003125,-4.187927723,3.590900183,11.32017899
8.490003125,-4.174874783,3.261295319,10.89186478
8.500003125,-3.794397831,3.08852005,10.39116096
8.510004688,-3.191442013,2.923511744,9.953961372
8.520004688,-2.767476797,2.761663675,9.608324051
8.530003125,-2.623441696,2.601616144,9.510573387
8.540003125,-2.724764347,2.504641294,9.584448814
8.550003125,-2.934458017,2.482691288,9.57449913
8.560003125,-3.264513016,2.379156351,9.431727409
8.570003125,-3.179911613,2.619725704,9.084549904
8.580004688,-2.944638014,2.580757856,8.668408394
8.590004688,-2.755802631,2.460817814,8.334915161
8.600004688,-2.579455376,2.30939889,7.990398884
8.610003125,-2.478975534,2.293827057,7.601437092
8.620003125,-2.440198898,2.500360489,7.2085495
8.630003125,-2.182994604,2.878807068,7.081751347
8.640003125,-2.260145426,3.142140627,7.032546043
8.650004688,-2.543389082,3.3094666,6.838807106
8.660004688,-2.91123414,3.540085554,6.822957516
8.670003125,-3.17405057,3.786659718,7.034853935
8.680003125,-3.162606239,3.843948126,7.227787971
8.690003125,-3.015707493,3.825426579,7.33797884
8.700003125,-2.769985914,3.812708616,7.370951653
8.710003125,-2.639434814,3.880550623,7.297401905
8.720003125,-2.61348176,4.004618168,7.098491669
8.730004688,-2.597478867,4.150339127,6.8118577
8.740004688,-2.535861731,4.263038635,6.572878361
8.750003125,-2.465079546,4.436062813,6.550047398
8.760003125,-2.413259506,4.54965353,6.755728245
8.770003125,-2.324386597,4.538553715,7.051948547
8.780003125,-2.21930027,4.50219059,7.276744843
8.790003125,-2.200366974,4.536772728,7.458455086
8.800004688,-2.119203568,4.601828098,7.614470959
8.810004688,-2.178838491,4.667562962,7.678397179
8.820003125,-2.335610628,4.748410225,7.75306654
8.830003125,-2.395379543,4.81431818,7.976130486
8.840003125,-2.160297632,4.449862957,8.850358009
8.850003125,-1.640564442,2.58765316,13.47659779
8.860001563,-0.770942509,3.241758585,9.879337311
8.870004688,-0.5556463,3.711500883,9.844238281
8.880004688,0.276195109,3.507160664,9.015213013
8.890003125,0.192848146,3.594980001,8.193026543
8.900003125,-0.232879207,3.778931141,8.43567276
8.910003125,-0.684990644,3.964500904,8.803594589
8.920003125,-0.655522823,3.998632669,9.030181885
8.930003125,-0.507800579,3.930187225,9.091071129
8.940003125,-0.546912253,3.79888916,8.937775612
8.950003125,-0.465298712,3.662237883,8.814770699
8.960003125,-0.364560276,3.661691904,8.996471405
8.970003125,-0.487200886,3.763158083,9.30106163
8.980003125,-0.78290391,3.915850878,9.35829258
8.990003125,-1.113236666,4.029910564,9.158960342
9.000003125,-1.253249645,4.123102665,8.747895241
9.010004688,-1.235101581,4.312005043,8.476278305
9.020004688,-1.26568985,4.433391094,8.184809685
9.030003125,-1.525221348,4.531380653,8.158624649
9.040003125,-1.810227156,4.599223137,8.3329916
9.050003125,-2.105441809,4.656023026,8.38958931
9.060003125,-2.153048038,4.548485279,8.410772324
9.070003125,-2.131959915,4.48071003,8.439522743
9.080004688,-2.235140324,4.51977396,8.500938416
9.090004688,-2.411909103,4.498273849,8.65391922
9.100004688,-2.559439898,4.569764614,8.654742241
9.110003125,-2.761692286,4.556050777,8.875555992
9.120003125,-2.890835524,4.58864069,8.905414581
9.130003125,-3.018034697,4.585930347,8.918564796
9.140003125,-3.08022666,4.588726997,8.921398163
9.150004688,-3.065957069,4.56650877,8.881195068
9.160004688,-3.038040638,4.515138626,8.841355324
9.170004688,-2.866654158,4.51450634,8.62795639
9.180003125,-2.892865896,4.490354061,8.621232986
9.190003125,-2.718453169,4.504086971,7.746094704
9.200003125,-3.112720728,4.937294006,6.584580898
9.210003125,-3.079517841,5.070210457,8.246129036
9.220003125,-3.462101698,4.963936329,9.131082535
9.230004688,-3.560398102,4.769115448,9.419949532
9.240003125,-3.461086512,4.748620987,9.532744408
9.250003125,-3.251048088,4.72223711,9.206547737
9.260003125,-2.870992422,4.458865166,8.784661293
9.270003125,-2.581562281,4.593582153,8.669126511
9.28000625,-2.579129696,4.60340786,8.420484543
9.290003125,-2.663874865,4.640307426,8.22063446
9.300004688,-2.661653042,4.704740047,8.213290215
