Time (s),Acceleration x (m/s^2),Acceleration y (m/s^2),Acceleration z (m/s^2)
0,-3.3376894,4.764739037,6.072432518
0.009998438,-3.410434723,5.209275246,6.696447849
0.019998438,-3.234882355,5.515081882,6.986548424
0.03,-2.777714491,5.603332043,7.042381287
0.04,-2.372107983,5.656330109,7.30535078
0.050001563,-2.098000526,5.698573112,7.625388622
0.06,-1.891984344,5.684907436,7.87858963
0.069998438,-1.905985594,5.688910484,8.125853539
0.079998438,-2.231769323,5.697098255,8.101729393
0.089998438,-2.438082457,5.80060482,7.886902332
0.099998438,-2.615952492,6.174253464,8.338525772
0.110001563,-2.678469896,6.481036663,8.528471947
0.12,-2.637969732,6.505093575,8.465829849
0.130007813,-2.574523211,6.471853733,8.46526432
0.139998438,-2.493091822,6.522245884,8.56571579
0.15,-2.191125393,6.727447987,8.447356224
0.159998438,-1.780136824,6.861886978,8.429495811
0.169998438,-1.433092475,6.937026978,8.580360413
0.179996875,-1.140339017,6.987967014,8.771551132
0.190001563,-0.859585404,7.055290699,9.165108681
0.2,-0.619293749,7.094747066,9.543210983
0.21,-0.397945046,6.987458229,9.766543388
0.22,-0.181806087,6.605008602,9.971773148
0.23,-0.405462831,6.84975338,9.849611282
0.24,-0.481416494,7.056420803,9.289243698
0.25,-0.418899089,6.887591362,9.130527496
0.260001563,-0.596309423,6.865909576,9.398687363
0.270001563,-0.709468961,6.99529314,9.314669609
0.28,-0.796072006,7.060883522,9.209554672
0.29,-0.775472343,7.020249367,9.207821846
0.3,-0.687538087,7.048701763,8.780973434
0.31,-0.655915499,7.127385139,8.344721794
0.32,-0.854279876,7.323278427,8.328469276
0.330001563,-0.995987892,7.565792084,8.332157135
0.34,-1.443339705,7.823504925,8.642349243
0.35,-1.282669544,7.834047794,9.130785942
0.36,-0.996351779,7.69303894,9.001221657
0.37,-0.556852996,7.505295277,8.809513092
0.38,-0.248202085,7.482215405,8.38331604
0.39,-0.070830062,7.490834236,7.827851772
0.400001563,-0.039580941,7.517084122,7.477062702
0.410001563,-0.167469621,7.470253944,7.120384216
0.42,-0.48025769,7.495776176,6.971407413
0.43,-0.851023734,7.490662098,6.929911137
0.440001563,-1.116693974,7.276247025,7.08313036
0.45,-1.417242885,7.021130085,7.168527126
0.46,-1.593638062,6.768867493,7.376841545
0.470001563,-1.743112803,6.466997147,7.510514736
0.48,-1.795622468,6.201154709,7.456568718
0.49,-1.622454643,5.941804886,7.498026371
0.5,-1.784513354,5.792713165,7.157848835
0.51,-2.13216114,5.305129528,6.682322025
0.52,-2.327757835,4.680970669,6.509087086
0.53,-2.655715466,4.166092873,6.336723804
0.540001563,-2.967622519,3.757364273,6.247831821
0.550001563,-3.397199631,3.456250191,6.199947834
0.560001563,-3.721068144,3.172652245,6.335316181
0.57,-3.921711683,2.960937738,6.752979755
0.58,-3.986163616,2.699232578,7.137478828
0.590001563,-4.023513317,2.298299551,7.103366375
0.6,-4.124299526,1.645917892,7.011668205
0.61,-4.193252563,0.953275323,6.960240841
0.620001563,-4.376092911,0.409178644,6.812279224
0.630001563,-4.692501068,0.07637503,6.582378387
0.64,-4.968513966,-0.240282074,6.423824787
0.65,-5.241146564,-0.441960037,6.358616352
0.66,-5.625626564,-0.486367702,6.423259735
0.67,-5.865142822,-0.461812764,6.623529911
0.68,-6.002866745,-0.449813008,6.513444424
0.690001563,-6.091672421,-0.391806304,6.185965538
0.700001563,-5.98156786,-0.398873985,5.879163265
0.71,-5.796572685,-0.4481754,5.51936245
0.72,-5.49409914,-0.465710521,5.22628355
0.73,-5.218947887,-0.354179025,5.214638233
0.74,-5.00795126,-0.017994819,5.262905121
0.75,-4.804731846,0.402359933,5.209590912
0.760001563,-4.40200758,0.67929244,5.264456749
0.770001563,-3.938308477,0.79554528,5.433774471
0.78,-3.677618265,1.031718969,5.316736221
0.79,-3.37159133,1.255528927,5.13517952
0.8,-3.034315348,1.405051589,5.002033234
0.81,-2.813052893,1.704623699,4.893728733
0.82,-2.206754684,2.022822618,4.94965744
0.830001563,-1.376397729,2.290973186,4.903487682
0.84,-0.734723032,2.654767275,4.950816154
0.85,-0.124833673,3.063055277,4.914366722
0.86,0.493569434,3.528670073,4.884353161
0.87,0.913071871,4.082362652,5.02770853
0.88,1.140291214,4.781048298,5.170125008
0.89,1.513384461,5.40555191,5.448178291
0.900001563,2.121827602,5.86700058,5.65045929
0.910001563,3.162606239,6.24516964,5.606693268
0.92,4.167471886,6.755354881,5.74996233
0.93,5.091068745,7.258644581,5.745471001
0.94,5.702480793,7.784747601,5.617113113
0.95,5.888079166,8.305628777,5.53028965
0.96,5.846419811,8.829527855,5.433324337
0.970001563,5.899360657,9.136387825,5.291903973
0.98,6.053194046,9.281045914,5.372052193
0.99,6.635156155,9.313884735,5.503857613
1,7.263366222,9.390164375,5.72919035
1.01,7.695337296,9.542923927,5.812881947
1.02,7.976512432,9.715164185,5.547911167
1.03,8.1811409,9.926505089,5.287786007
1.040001563,8.245218277,10.08141804,4.983712673
1.050007813,8.369190216,10.10778332,4.543399811
1.060001563,8.412448883,10.02523994,4.187190533
1.07,8.356625557,9.855894089,4.020515919
1.08,8.34805584,9.64795208,4.037754059
1.09,8.309978485,9.465324402,4.259916782
1.1,8.49571991,9.218260765,4.704596519
1.11,8.811408997,8.969511986,5.154533863
1.120001563,9.086503029,8.915452957,5.343838692
1.130001563,9.168951035,8.968554497,5.503292561
1.14,9.123612404,9.066745758,5.570608139
1.150007813,9.11091423,9.16539669,5.421257496
1.16,9.25188446,9.206557274,4.979757309
1.17,9.405104637,9.194357872,4.517427444
1.18,9.511340141,9.080842972,4.191423416
1.19,9.543210983,8.941596985,3.915812492
1.2,9.609884262,8.867348671,3.709259987
1.21,9.629928589,8.842983246,3.560196877
1.22,9.476873398,8.820843697,3.458060265
1.23,9.186331749,8.730819702,3.361717701
1.24,8.864169121,8.567689896,3.359170198
1.25,8.586191177,8.337931633,3.499144793
1.26,8.35063076,8.091731071,3.682598114
1.270001563,8.096213341,7.835991859,3.966732264
1.28,7.91686821,7.623836994,4.195637226
1.29,7.772488117,7.385604382,4.307590008
1.3,7.539599419,7.145869255,4.348032951
1.31,7.320750237,6.979212761,4.277346611
1.32,7.02869606,6.843710423,4.185859203
1.330001563,6.707145214,6.644217014,4.089631557
1.34,6.468500614,6.431792736,4.080284595
1.35,6.167836666,6.162425995,4.295302868
1.36,5.826404572,5.878713131,4.713828564
1.37,5.538295746,5.589895725,5.148500919
1.38,5.317320824,5.284290314,5.570569515
1.39,5.006332874,5.01224184,5.953795433
1.400001563,4.709250927,4.778040886,6.180344105
1.410001563,4.386474133,4.649281025,6.237747669
1.42,3.981652975,4.603685856,6.299144268
1.43,3.546071053,4.586370945,6.436849117
1.44,3.173763275,4.51872015,6.640461922
1.45,2.892904282,4.378630638,6.995933533
1.459998438,2.696886063,4.27264452,7.562679291
1.470001563,2.512082577,4.135715008,8.154058456
1.480001563,2.357694864,4.028665543,8.480827332
1.490001563,2.150040865,3.970361948,8.65425396
1.5,1.748064041,4.019787788,8.650930405
1.51,1.306420088,4.155060291,8.490673065
1.519998438,1.014471054,4.255865574,8.386533737
1.529998438,0.881937683,4.283485413,8.321545601
1.540001563,0.928356469,4.191222191,8.237462044
1.550001563,0.94901365,4.057750225,8.310014725
1.56,0.885318279,3.934017897,8.356175423
1.57,0.667599201,3.903151989,8.363645554
1.58,0.208994642,3.929641485,8.23283577
1.59,-0.316388965,4.050337791,8.161632538
1.6,-0.818309367,4.250703812,8.293629646
1.610003125,-1.079602957,4.363049507,8.406042099
1.62,-1.158199787,4.325048447,8.623330116
1.630001563,-1.324663877,4.294987202,8.748709679
1.64,-1.326148272,4.288005352,8.588479996
1.65,-1.203488588,4.261554241,8.466806412
1.66,-1.207721472,4.288723946,8.304144859
1.67,-1.264808774,4.400255203,8.224198341
1.68,-1.632002711,4.611337662,8.278345108
1.690001563,-2.24915123,4.799904823,8.02265358
1.7,-2.856014252,4.92402029,7.66204834
1.71,-3.30171895,5.035082817,7.380969048
1.72,-3.400139809,5.063468456,7.248330593
1.73,-3.456652403,5.033406734,7.579611301
1.74,-3.539300442,5.16856432,8.187098503
1.75,-3.333092451,5.471028328,8.861735344
1.76000625,-3.234144926,5.779822826,9.566645622
1.77,-3.296662331,6.038798809,9.771197319
1.78,-3.131740093,6.256517887,9.440193176
1.79,-3.351326704,6.58470583,9.116660118
1.8,-3.60692215,6.918697834,8.507259369
1.81000625,-3.547124624,7.102217197,8.063480377
1.82,-3.515549898,7.306480885,8.18536377
1.830001563,-3.303327799,7.491495132,8.412572861
1.84,-2.753408432,7.567257404,8.797350883
1.85,-2.448253155,7.617650509,9.10563755
1.86,-2.259839058,7.639629364,9.078239441
1.87,-1.987465024,7.735330105,8.884594917
1.88,-2.112327576,7.933033943,8.757980347
1.89,-2.310519457,8.091022491,8.387299538
1.900001563,-2.223169327,8.082355499,8.039796829
1.910001563,-2.15095067,7.993147373,8.273326874
1.92,-2.017383099,7.966227055,8.687973022
1.93,-1.83715713,7.815219879,9.122903824
1.94,-1.469675899,7.538067341,9.445021629
1.95,-1.240359187,7.336446762,9.420484543
1.960007813,-0.952978432,7.177874088,9.224466324
1.970001563,-0.546481311,7.042438507,9.09508419
1.98,-0.181068674,6.977077007,9.214382172
1.990001563,0.032369606,7.033187389,9.54284668
2,0.42376411,7.066304207,9.863938332
2.010001563,0.808627248,6.992696762,10.2299366
2.02,1.134573817,6.900883675,10.33332634
2.03,1.507044554,6.75030756,10.11870956
2.040001563,1.862210035,6.506012917,10.1126194
2.05,2.119356871,6.256412506,10.2289114
2.060001563,2.574973345,5.983425617,10.22710037
2.07,3.066273212,5.670503616,10.20268917
2.08,3.457093,5.383467674,10.05152893
2.09,3.9029603,5.20230341,9.961200714
2.1,4.19215107,5.097274303,9.958872795
2.11,4.465003967,5.078283787,9.694515228
2.120001563,4.946201324,5.064655781,9.43040657
2.130001563,5.187660217,5.086462021,9.226984978
2.14,5.279109001,5.121091843,8.952744484
2.15,5.400878429,5.105050564,8.830447197
2.160001563,5.486849308,4.988050938,8.877373695
2.17,5.547403336,4.839121819,8.890581131
2.18,5.644655704,4.681114197,8.855395317
2.190001563,5.745537758,4.522943497,8.852416992
2.2,5.930169106,4.41714859,8.607624054
2.21,6.288207531,4.584819317,8.214459419
2.22,6.806897163,4.884870529,7.897982597
2.23,7.345142365,5.253271103,7.561175823
2.24,7.783539772,5.520530701,7.246846199
2.25,8.035113335,5.679400444,6.900414467
2.260001563,7.964531898,5.779047012,6.538574219
2.270001563,7.63814497,5.882620335,6.076512337
2.28,7.220663071,5.945846558,5.618626118
2.29,6.825753689,5.938060284,5.225651264
2.3,6.493888855,5.861302376,4.921693325
2.31,6.248502254,5.799531937,4.659873009
2.319998438,6.321659565,5.773550034,4.401107788
2.330001563,6.53514576,5.845701694,4.251738071
2.34,6.713695526,5.917690754,4.179136276
2.35,6.723138332,5.915899754,4.154514313
2.36,6.57386446,5.806676388,4.203212261
2.37,6.291195869,5.711760521,4.451721191
2.38,5.964597702,5.571059227,4.701263905
2.39,5.748430252,5.430173874,4.991240025
2.400001563,5.614527225,5.274943352,5.269120693
2.410001563,5.583651543,5.195360184,5.540555954
2.42,5.590144634,5.161592007,5.745078087
2.43,5.648955822,5.191615582,5.861991882
2.44,5.6852808,5.228294849,6.120718956
2.45,5.649415493,5.172107697,6.447814941
2.46,5.587932587,5.026530266,6.732370377
2.470001563,5.578346252,4.898220539,7.021408081
2.48,5.751925468,4.787129402,7.443773746
2.490001563,5.889420033,4.667026997,7.87891531
2.5,5.889831543,4.537423611,8.198590279
2.51,5.754961491,4.388724804,8.325539589
2.52,5.472359657,4.287497997,8.362668037
2.53,5.096997738,4.277413368,8.271018028
2.540001563,4.757833958,4.328141689,8.204785347
2.550001563,4.429646492,4.348483086,8.435079575
2.560001563,4.274511814,4.293004513,8.805481911
2.57,4.165403366,4.170986652,8.954774857
2.58,3.988778114,4.050577164,9.054353714
2.59,3.808293581,4.0414505,9.122951508
2.6,3.602622271,4.139545918,9.21422863
2.61,3.380622149,4.266046047,9.225502014
2.620001563,3.226761341,4.325201988,9.166077614
2.63,3.027659416,4.39925909,9.013212204
2.64,2.833528042,4.492336273,8.890475273
2.65,2.721939087,4.543514729,8.850510597
2.66,2.550504684,4.588774681,8.892830849
2.67,2.433562279,4.652891159,8.957982063
2.68,2.42948246,4.611874104,9.029445648
2.690001563,2.382824421,4.51760006,9.11048317
2.7,2.269684076,4.490296364,9.232903481
2.71,2.037245274,4.564219952,9.476681709
2.72,1.670472741,4.717917919,9.64691925
2.73,1.392477274,4.823166847,9.691038132
2.74,1.22787106,4.793001175,9.606044769
2.75,1.167767048,4.734351635,9.506656647
2.760001563,1.202377677,4.676938534,9.325328827
2.770001563,1.281692743,4.651981831,9.276162148
2.78,1.224720359,4.638468742,9.404788017
2.79,1.076672435,4.678499699,9.645357132
2.8,0.941256404,4.732675552,10.01390171
2.81,0.750208735,4.722849846,10.25170326
2.819998438,0.669112325,4.636400223,10.23360252
2.830001563,0.650983393,4.492891788,10.12880516
2.84,0.490935832,4.362245083,10.09398365
2.85,0.288606644,4.391540527,9.978495598
2.86,0.173215702,4.440803528,10.01794243
2.87,-0.007546524,4.49519968,10.2458992
2.88,-0.222622439,4.534550667,10.53397083
2.89,-0.465758413,4.529810429,10.87479019
2.900001563,-0.747938991,4.437192917,11.09448147
2.910001563,-0.83197546,4.241577148,11.09209633
2.92,-0.898840725,4.009310722,11.07576847
2.93,-1.060583472,3.921434164,10.96861362
2.94,-1.242016077,4.00135231,10.82368755
2.95,-1.370670795,4.111629486,10.75617218
2.960042188,-1.518000484,4.161371231,10.7444973
2.970001563,-1.831803679,4.215077877,10.693223
2.98,-2.211705923,4.365060329,10.68534184
2.990001563,-2.47363162,4.457974434,10.54827785
3,-2.591847658,4.574801922,10.40702057
3.01,-2.60081172,4.65443325,10.24586105
3.019998438,-2.43736434,4.773857117,10.14249897
3.03,-2.252215862,4.894609928,10.0098505
3.040001563,-2.100279808,4.976865292,9.863152504
3.050001563,-2.035875797,5.085083008,9.646382332
3.060001563,-2.133492231,5.241884232,9.475378036
3.07,-2.280572891,5.455762863,9.336956024
3.08,-2.415385485,5.657402515,9.282759666
3.09,-2.439528704,5.721940517,9.258397102
3.1,-2.397409916,5.719805241,9.216861725
3.11,-2.320230246,5.703802109,9.206348419
3.120001563,-2.214674711,5.63789463,9.143131256
3.130001563,-2.181787968,5.587855816,9.031311989
3.14,-2.2140522,5.54820776,8.906315804
3.15,-2.223255634,5.547403336,8.764846802
3.16,-2.238367796,5.588008881,8.725523949
3.17,-2.249927044,5.630195141,8.657432556
3.18,-2.22968173,5.654529572,8.49994278
3.190001563,-2.209560871,5.730885506,8.369027138
3.200001563,-2.16073823,5.774038315,8.227215767
3.21,-2.066224813,5.809290886,8.044948578
3.22,-1.994398713,5.870218277,7.830351353
3.23,-1.898525238,5.897493362,7.608609676
3.24,-1.83990562,5.933751106,7.416834354
3.25,-1.824132681,6.004034996,7.260770798
3.260001563,-1.837233663,6.030218124,7.132863045
3.270001563,-1.794789314,5.951611519,7.014704227
3.28,-1.759259343,5.820122242,6.932640553
3.29,-1.768874407,5.696447372,6.823302269
3.3,-1.853820682,5.664834023,6.675675869
3.31,-2.022698164,5.762392998,6.582790375
3.32,-2.125744581,5.873407364,6.583891392
3.330001563,-2.173523188,5.933406353,6.532521725
3.34,-2.121808529,5.91411829,6.482693672
3.35,-1.949818611,5.762488842,6.419744968
3.36,-1.709201336,5.573462009,6.276629448
3.37,-1.503625631,5.397861481,6.185630322
3.380003125,-1.421638608,5.343369484,6.153375626
3.39,-1.475967884,5.377912998,6.0958395
3.400001563,-1.530814171,5.405360222,6.098740101
3.410001563,-1.643906713,5.396760464,6.084106922
3.42,-1.739282131,5.322424889,6.026100159
3.43,-1.737883925,5.126293182,5.969664097
3.44,-1.724562526,4.875992775,5.877764702
3.45,-1.747652292,4.736180782,5.760947227
3.46,-1.756884336,4.697001934,5.738633156
3.470001563,-1.654479504,4.689656734,5.834065914
3.480001563,-1.520835161,4.725876331,5.985312462
3.490001563,-1.312060833,4.789427757,6.099841595
3.5,-1.124269247,4.851629257,6.145226002
3.51,-0.991889,4.766213894,6.121695995
3.52,-0.855180085,4.551214218,5.952713013
3.529998438,-0.828719378,4.350542068,5.705535412
3.54,-1.000776291,4.308403969,5.517600536
3.550001563,-1.159310699,4.361229897,5.476477623
3.560001563,-1.174805999,4.443159103,5.602613926
3.57,-0.975263655,4.488476753,5.773569107
3.580001563,-0.562445819,4.418872356,5.93904686
3.59,-0.043842621,4.307868004,5.995501995
3.6,0.382229507,4.177604198,5.84451437
3.61,0.647009015,4.119175911,5.629285336
3.62,0.760781527,4.321428776,5.537050724
3.630007813,0.858206332,4.65997839,5.560916424
3.64,0.936831951,4.918360233,5.576086044
3.65,1.091880441,4.944093227,5.695163727
3.66,1.301191092,4.813465595,5.720264912
3.67,1.478017211,4.606434345,5.521000385
3.679998438,1.646885037,4.547604084,5.311593533
3.690001563,1.785126328,4.644846916,5.170460224
3.7,1.950603962,4.794790745,5.093558788
3.71,2.146880627,4.862403393,5.279894352
3.72,2.358815193,4.736822605,5.682513237
3.73,2.531753302,4.574313641,5.865391731
3.74,2.544250965,4.466220379,5.8704772
3.75,2.604393244,4.355876446,5.921827793
3.76,2.839695454,4.291989326,5.954025269
3.77,3.25199604,4.351288795,6.08278513
3.78,3.695028782,4.463002682,6.329091072
3.79000625,4.116226196,4.630338192,6.516499519
3.8,4.384970665,4.685567379,6.574391365
3.81,4.639158249,4.620282173,6.57845211
3.819998438,4.828414917,4.484722614,6.475434303
3.830001563,5.07265234,4.328706741,6.252811909
3.84,5.353865623,4.409468174,6.191548824
3.85,5.649204731,4.682751656,6.202763557
3.86,5.871453762,5.019769192,6.246807098
3.87,6.065336227,5.273736477,6.292325497
3.88,6.308615685,5.382548332,6.348647118
3.89,6.60373497,5.437547684,6.371890068
3.900001563,6.782849789,5.373431206,6.233648777
3.910001563,6.795041084,5.279990196,6.069282055
3.92,6.735904217,5.334731102,5.973351002
3.93,6.799992085,5.557880402,6.064493656
3.94,7.188350677,5.914807796,6.158873081
3.95000625,7.541152,6.254343987,6.245753765
3.96,7.825572491,6.556070805,6.39211607
3.970001563,8.081791878,6.797234058,6.432895184
3.98,8.223373413,6.98963213,6.386044502
3.990001563,8.263654709,7.211689472,6.366909981
4,8.331017494,7.403484344,6.448456287
4.01,8.443305969,7.534984589,6.670935154
4.02,8.698689461,7.661627293,6.977067471
4.03,9.0476408,7.837706089,7.165194035
4.039998438,9.383077621,8.102525711,7.220166206
4.05,9.563139915,8.3189888,7.298398018
4.060001563,9.642187119,8.472782135,7.374975204
4.07,9.590089798,8.637005806,7.428431988
4.08,9.533922195,8.786633492,7.570561409
4.09,9.537656784,8.92069149,7.810642242
4.1,9.624527931,9.144940376,8.042285919
4.11,9.929855347,9.404730797,8.174637794
4.120001563,10.46067905,9.606284142,8.211728096
4.130001563,11.03542233,9.743988991,8.171295166
4.14,11.42489052,9.903729439,7.993147373
4.15,11.48289776,10.11387444,7.779546261
4.16,11.42659569,10.34255791,7.5355196
4.17,11.35164738,10.36356068,7.302401066
4.18,11.07385445,10.08704948,7.131752014
4.190001563,10.66250134,9.744746208,6.989890575
4.2,10.39321041,9.370167732,6.717334747
4.21,10.17232132,8.901106834,6.454892159
4.22,9.788272858,8.438526154,6.451425076
4.23,9.370839119,8.118575096,6.531401157
4.24,8.838569641,7.937103748,6.682868004
4.25,8.356328964,7.829948902,6.844486237
4.260001563,8.07086277,7.736661434,6.938626289
4.270001563,7.940015316,7.615074158,6.950510979
4.28,7.978255272,7.377214909,6.818992615
4.29,7.959255219,7.082709312,6.602796078
4.3,7.831644058,6.810555458,6.386906147
4.31,7.736096382,6.557239532,6.232652664
4.32,7.760335445,6.431926727,6.056046963
4.330001563,7.568789482,6.351577282,5.9485569
4.34,7.296118736,6.206143856,5.896823883
4.35,7.111334324,6.004188538,6.013717175
4.36,6.914253235,5.836709023,6.245887756
4.37,6.794006824,5.723166466,6.354747295
4.38,6.727658749,5.542183876,6.326601028
4.39,6.667860985,5.279626369,6.29446125
4.400001563,6.526574612,5.015162945,6.081319809
4.410001563,6.237546444,4.867948055,5.84701395
4.42,5.943394661,4.814758778,5.519726276
4.43,5.732858181,4.740356445,5.073016167
4.44,5.535403728,4.540708542,4.534378529
4.45,5.253845692,4.205233097,4.122738361
4.46,4.837829113,3.835396051,3.796820641
4.470001563,4.383256435,3.54226923,3.621181965
4.480001563,3.952568293,3.2715137,3.496970892
4.490001563,3.529206276,2.998804569,3.401126146
4.5,3.158440351,2.670377493,3.267529726
4.51,2.758579969,2.364379406,3.197082758
4.52,2.288378,2.106409073,3.128206253
4.529998438,1.728067636,1.972668886,3.094132185
4.54,1.134401441,1.888335586,3.097905397
4.550003125,0.632337391,1.896456718,3.128244638
4.560001563,0.276099324,1.96809113,3.256707907
4.57,0.153315097,1.998152733,3.487020493
4.58,0.157567203,2.033730507,3.906369686
4.59,0.291269004,2.078023434,4.288101196
4.6,0.44885534,2.159694433,4.444471359
4.61,0.482335865,2.328772783,4.438466549
4.620001563,0.405836314,2.528018236,4.36130619
4.630001563,0.257663965,2.72682333,4.256622314
4.64,0.140549213,2.779936314,4.197428226
4.65,0.240933299,2.658310652,4.252906322
4.66,0.374951124,2.435563803,4.489578247
4.67,0.535544574,2.202531338,4.844532967
4.68,0.796579599,2.097301483,5.161860466
4.690001563,1.068627954,2.091622353,5.548332214
4.7,1.256687641,2.159090996,6.02345705
4.71,1.479549527,2.259216547,6.491513729
4.72,1.629876733,2.364369869,6.709108353
4.73,1.704690695,2.500236034,6.70667696
4.74,1.706175089,2.729734659,6.64411068
4.750001563,1.749998569,2.963245869,6.522734165
4.76,1.898688078,3.278389931,6.450036526
4.77,2.043738365,3.562505007,6.571432114
4.78,2.203058004,3.846122026,6.837562084
4.79,2.376771927,4.200511932,7.038810253
4.8,2.731487036,4.588506699,7.274819851
4.81,3.1779387,4.902328968,7.513291836
4.82,3.545381546,5.241807461,7.841374397
4.830001563,3.719851971,5.610811234,8.265176773
4.840001563,3.783106565,6.005059719,8.597655296
4.85,4.014281273,6.426094532,8.956736565
4.86,4.232814312,6.814960957,9.188715935
4.87,4.427309513,7.169906139,9.290651321
4.88,4.603532314,7.636373043,9.595519066
4.89,4.731746674,8.196788788,9.936003685
4.900001563,4.827620029,8.735924721,10.12684059
4.910001563,5.054935455,9.022252083,10.20590687
4.92,5.294278622,8.935092926,10.05204582
4.93,5.31162262,8.73759079,9.724386215
4.94,5.075314522,8.627076149,9.292854309
4.95,4.741611004,8.703468323,9.062685966
4.96,4.369542599,9.090668678,9.36707592
4.970001563,4.174070358,9.628760338,10.13534451
4.980001563,4.18967104,9.991856575,10.87465477
4.99,4.302543163,10.05619335,11.47784042
5,4.374876499,9.927125931,11.74300385
5.01,4.108737469,9.642474174,11.47738266
5.02,3.54754591,9.361941338,11.06219864
5.03,2.79501009,9.110215187,10.66443634
5.04,2.077027321,8.909858704,10.42512989
5.050001563,1.422538877,8.871159554,10.61500931
5.060001563,0.91698879,8.952390671,11.17122173
5.07,0.582863569,9.077501297,11.80472755
5.08,0.395139039,9.076945305,12.36880112
5.09,0.270784199,9.000187874,12.72717381
5.1,0.140932277,8.84442997,12.83076668
5.11,0.045049299,8.702703476,12.67874432
5.120001563,-0.086334907,8.634812355,12.4805336
5.130001563,-0.260680676,8.644945145,12.24259663
5.14,-0.407627195,8.678224564,12.03643703
5.150001563,-0.460347503,8.67363739,11.84827328
5.16,-0.445407689,8.565284729,11.6240406
5.17,-0.440925747,8.361942291,11.39467621
5.18,-0.553261697,8.223555565,11.20645428
5.190001563,-0.656451762,8.112215996,11.03399372
5.200001563,-0.853264749,8.012559891,10.72222137
5.21,-1.057442188,7.862433434,10.38654613
5.22,-1.199073672,7.667813778,10.01733971
5.23,-1.288655043,7.42794323,9.571060181
5.24,-1.342457533,7.216477871,9.036455154
5.250003125,-1.489174247,6.997724533,8.536506653
5.260001563,-1.6998353,6.763054371,8.095149994
5.27,-1.889810324,6.562813282,7.79980135
5.28,-2.016923428,6.394577503,7.610372066
5.29,-2.193347216,6.239959717,7.49054718
5.300003125,-2.322547913,6.066399097,7.380068779
5.31,-2.461775541,5.895242691,7.284549713
5.319998438,-2.643830538,5.736075878,7.216611862
5.330001563,-2.775013685,5.613186359,7.121064186
5.340001563,-2.848056078,5.489444733,6.990963459
5.35000625,-2.875302076,5.36126852,6.840138435
5.36,-3.038912296,5.380862713,6.719326973
5.37,-3.276915073,5.565637589,6.662852287
5.38,-3.430852652,5.733366013,6.625435829
5.39,-3.348089933,5.654405117,6.523845196
5.40000625,-3.068600416,5.399920464,6.334013462
5.410001563,-2.765695572,5.170154095,6.045157909
5.420001563,-2.575749159,5.005844593,5.713244915
5.43,-2.551730394,5.080984116,5.468356609
5.44,-2.583190203,5.27682972,5.437682152
5.45000625,-2.601788521,5.406720161,5.570425987
5.46,-2.464638948,5.292085648,5.705248356
5.470001563,-2.318841696,5.03366518,5.667171001
5.48,-2.186011314,4.851026058,5.518836021
5.49,-1.958284497,4.716653824,5.202255249
5.50000625,-1.825722337,4.528728008,4.775436401
5.51,-1.683181167,4.435966969,4.377299786
5.52,-1.48073709,4.412111282,4.0392766
5.529998438,-1.25233984,4.336550236,3.831268549
5.539998438,-0.952260196,4.221216679,3.800689697
5.550001563,-0.703655839,4.112223148,3.959396601
5.560001563,-0.525067568,3.966569662,4.236156464
5.57,-0.378810585,3.796744108,4.524456978
5.58,-0.343089104,3.616317034,4.684131145
5.59,-0.30615136,3.460875988,4.768713474
5.6,-0.272441,3.311994791,4.735099792
5.61,-0.148411766,3.137936354,4.605869293
5.620001563,-0.034055125,2.969604969,4.490899563
5.630001563,0.085032463,2.810275555,4.446511269
5.64,0.246746421,2.628325701,4.5348382
5.65000625,0.392342597,2.446711302,4.638325214
5.66,0.575661838,2.250175953,4.760362148
5.67,0.700974345,2.111235619,4.828529835
5.68,0.705111504,2.116407156,4.83541584
5.690001563,0.61349982,2.20173645,4.890874863
5.7,0.552773237,2.223399162,5.024596214
5.71,0.490169674,2.183329821,5.180487156
5.72,0.563920677,2.101630211,5.200081348
5.73,0.893803358,2.039830923,5.162530899
5.74,1.197301865,2.180485487,5.360492706
5.75,1.475556016,2.618614912,5.692635536
5.760001563,1.844780207,3.131491184,5.980725288
5.770001563,2.442401648,3.66746664,6.468701839
5.78,2.764680386,4.04909277,6.908085823
5.79,2.93249464,4.166705608,7.115164757
5.8,3.040607214,4.083598137,6.992495537
5.81,3.095827103,3.873463869,6.614508629
5.82,3.128828764,3.811741352,6.268404007
5.830001563,3.291902781,4.227116108,6.534580708
5.84,4.04805851,4.949896812,7.098099232
5.85,4.732206345,5.513242722,7.699465275
5.86,5.128370285,5.825082779,8.255379677
5.87,5.396147251,5.815065384,8.454357147
5.88,5.380671024,5.521948338,8.183074951
5.89,5.491168499,5.027296543,7.456549168
5.900001563,5.49236536,4.824708939,6.851438999
5.910001563,5.741124153,5.383390903,6.596485138
5.92,5.976894379,6.437500477,6.830206871
5.93,6.002704144,7.344194412,7.485806465
5.94,6.062348366,7.790166855,8.247200966
5.95,6.24131012,7.776453018,8.688788414
5.96,6.487874508,7.34083271,8.40585041
5.970001563,6.567333221,6.723875999,7.726682186
5.98,6.505496025,6.639446735,7.359268188
5.990001563,6.244499207,7.244049549,7.423969269
6,6.144890785,8.08525753,7.846612453
6.01,6.102446556,8.635349274,8.772805214
6.02,6.272262096,8.580311775,9.549292564
6.03,6.621317863,8.228736877,10.02774906
6.04,6.681890965,7.85431242,10.04142475
6.050003125,6.520483494,7.617238522,9.712308884
6.060001563,6.161918163,7.667401791,9.314047813
6.07,5.825389385,7.928570747,9.215005875
6.08,5.734093666,8.162542343,9.256481171
6.09,5.706254005,8.15380764,9.245774269
6.1,5.500812054,7.975353718,9.039384842
6.11,5.187066555,7.716396809,8.646046638
6.12,4.78868103,7.400708199,8.254872322
6.130001563,4.34189415,7.123812675,8.032910347
6.14,3.804166079,6.936088085,7.893280506
6.15,3.378553629,6.871798992,8.021092415
6.16,3.116417408,6.891939163,8.482914925
6.17,3.065660238,6.86527729,9.054553986
6.18,3.147110939,6.707164288,9.461666107
6.190001563,3.272931099,6.451635838,9.512775421
6.2,3.213784695,6.14191246,9.301148415
6.21,3.094946146,5.866512299,8.877287865
6.22,2.881718397,5.571805,8.481650352
6.23,2.534626245,5.261870861,8.292575836
6.24,2.11838007,5.08214283,8.488882065
6.250003125,1.689434886,4.969069481,8.771962166
6.260001563,1.342131972,4.851600647,9.04624176
6.270001563,1.176836252,4.629533768,9.24933815
6.28,0.992492318,4.318296909,9.234186172
6.29,0.828824699,4.066465378,9.301187515
6.3,0.632634282,3.854741096,9.233200073
6.31,0.427317113,3.698275328,9.217781067
6.32,0.182725459,3.594635248,9.481871605
6.330001563,-0.045614328,3.594970226,9.824090004
6.34,-0.257472426,3.666394234,10.07774162
6.35,-0.335772395,3.733335972,10.12668705
6.36,-0.256131679,3.705793142,10.16303253
6.37,-0.239908576,3.635633469,10.13862991
6.38,-0.275199115,3.588055849,9.979539871
6.389998438,-0.305682093,3.548465252,9.809503555
6.400001563,-0.40364325,3.480776548,9.720651627
6.410001563,-0.605464876,3.448780298,9.690704346
6.420001563,-0.835710406,3.536542177,9.690981865
6.43,-1.064126849,3.639100313,9.859044075
6.44,-1.22281456,3.747663021,10.08002949
6.45,-1.186279058,3.750248671,10.27854729
6.46,-1.054109454,3.704184294,10.42864418
6.469998438,-0.96187526,3.576601982,10.42989922
6.48,-0.943028152,3.520884037,10.31312847
6.490001563,-1.068225741,3.565301418,10.15275574
6.5,-1.334460974,3.745613575,10.02597809
6.51,-1.567244411,4.028991222,10.06261063
6.52,-1.540898561,4.285984993,10.28086567
6.529998438,-1.248767614,4.392019272,10.64531898
6.54,-0.747919858,4.399805069,10.90849018
6.550003125,-0.214577928,4.344882011,10.98658848
6.560001563,0.319443941,4.247055054,10.91303921
6.57,0.745870411,4.178906441,10.66209888
6.58,1.11923182,4.082592487,10.25073624
6.59,1.305203795,4.100031853,9.836215019
6.6,1.437593579,4.195550919,9.372955322
6.61,1.558251739,4.230717182,9.068220139
6.62,1.733775496,4.155902863,8.769769669
6.63,1.998124003,4.021454334,8.524929047
6.64,2.254083395,3.865697145,8.395037651
6.65,2.405674696,3.715283632,8.359556198
6.66,2.455416441,3.59292078,8.411500931
6.67,2.432096958,3.464773655,8.445537567
6.68,2.29226613,3.343741894,8.528874397
6.690001563,2.01520896,3.266006947,8.637436867
6.700001563,1.721440554,3.216293812,8.706092834
6.71,1.523736954,3.165756941,8.681758881
6.72,1.445216656,3.080293655,8.534428596
6.73,1.456392884,2.965036631,8.414394379
6.74,1.442065954,2.868387699,8.396579742
6.749998438,1.345924377,2.795575142,8.419143677
6.760001563,1.286002278,2.809480667,8.398150444
6.770001563,1.165238738,2.85772872,8.472303391
6.78,0.968176842,2.894848347,8.587503433
6.79,0.719160676,2.946524858,8.635712624
6.8,0.485228062,2.998517275,8.612307549
6.81,0.278799981,3.037437439,8.505420685
6.82000625,0.050201621,3.162070036,8.377925873
6.830001563,-0.046572011,3.328371286,8.165118217
6.840001563,-0.072793305,3.29198885,8.385796547
6.85,-0.253296942,3.376705408,8.239357948
6.86,-0.416447431,3.579810143,8.264852524
6.87,-0.629627109,3.692289829,8.431889534
6.88,-0.924803436,3.759413719,8.457009315
6.89,-1.273676991,3.84328723,8.500421524
6.900001563,-1.606126189,3.996114016,8.551840782
6.910001563,-1.965218186,4.249774933,8.596687317
6.920001563,-2.311161041,4.593486309,8.769931793
6.93,-2.557936192,4.817066669,8.902418137
6.94,-2.626228571,4.935599804,9.18085289
6.95,-2.552056074,4.947349548,9.352871895
6.96,-2.475326777,4.926941395,9.450795174
6.97,-2.469542265,4.993366241,9.507805824
6.98,-2.568250418,5.110442638,9.452432632
6.990001563,-2.663012981,5.237670422,9.401454926
7,-2.549671412,5.331379414,9.403580666
7.01,-2.138184786,5.336646557,9.418205261
7.019998438,-1.58094883,5.317023754,9.41878891
7.03,-1.036296606,5.305148602,9.36843586
7.04,-0.604756176,5.325556755,9.211432457
7.050001563,-0.290751845,5.238456726,9.052945137
7.060001563,-0.061712939,5.096786022,8.977547646
7.070001563,0.129296467,4.936652184,8.936452866
7.08,0.338147461,4.70328474,9.035122871
7.09,0.574397683,4.44811058,9.156356812
7.1,0.998640656,4.215710163,9.256319046
7.11,1.539778113,4.002319813,9.364383698
7.120001563,2.021022081,3.776307106,9.497261047
7.130001563,2.40686202,3.485526562,9.636335373
7.14,2.694396257,3.117020607,9.883992195
7.15,2.782588959,2.717648745,10.02346039
7.16,2.770809412,2.423228979,9.922922134
7.170009375,2.774985075,2.231961012,9.596008301
7.18,2.811855793,2.043000937,9.294970512
7.190001563,2.862248898,1.812343597,8.972768784
7.2,2.994648218,1.646808505,8.597941399
7.21,3.130064249,1.479041934,8.319095612
7.22,3.203594923,1.375976443,8.212591171
7.23,3.34845376,1.316648126,8.272502899
7.24,3.489807367,1.310423136,8.56785202
7.25,3.570223808,1.321264148,8.861974716
7.260001563,3.546253204,1.431397319,8.979079247
7.270003125,3.430948257,1.605944276,9.094700813
7.28,3.318171978,1.864336014,9.057533264
7.29,3.280400991,2.091488361,8.946585655
7.300003125,3.472617149,2.271465302,8.830945969
7.31,3.725119114,2.381225109,8.804580688
7.320003125,3.979239702,2.43434763,8.733032227
7.330001563,4.202101707,2.466975689,8.837573051
7.34,4.269397736,2.490142107,9.029587746
7.350001563,4.130007267,2.491750956,9.312849998
7.36,3.897281408,2.538533688,9.507767677
7.37,3.666374922,2.526083708,9.557623863
7.38,3.519610405,2.472290993,9.646229744
7.39,3.526793003,2.308699846,9.747552872
7.400001563,3.583937883,2.05634141,9.781932831
7.410001563,3.53455019,1.793879509,9.869293213
7.42,3.349430561,1.641110301,10.00233269
7.43,3.006121159,1.542248845,10.12200451
7.44,2.647431612,1.49003613,10.15184593
7.45,2.25230217,1.355644822,10.23657131
7.46,1.75366652,1.284527421,10.42189217
7.47,1.484989166,1.24777174,10.48385429
7.480001563,1.444814444,1.09900558,10.56456852
7.490001563,1.437277555,0.851138651,10.62924004
7.5,1.409638882,0.648512602,10.58104992
7.51,1.304408908,0.498137593,10.55206013
7.519998438,0.967506468,0.50148946,10.37846184
7.529998438,0.588197887,0.666469097,10.21429729
7.54,0.198852807,0.907756746,10.13927174
7.550001563,-0.141583502,1.256476998,10.08928967
7.560001563,-0.253804535,1.619591236,10.11301136
7.57,-0.282467902,1.839283109,10.16458321
7.58,-0.292657614,1.926499128,10.21242905
7.59,-0.236566275,2.034266949,10.22878742
7.6,-0.080531366,2.129479408,10.2096796
7.61,-0.066597112,2.250999689,10.30273819
7.620001563,-0.281634718,2.45217967,10.36769867
7.630001563,-0.591904104,2.686064243,10.44660187
7.64,-1.017918706,2.834715605,10.57993984
7.65,-1.461640954,2.990740776,10.67301559
7.66,-1.86233449,3.203623772,10.62480545
7.67,-2.143949986,3.39761138,10.58507252
7.679998438,-2.25638175,3.525107622,10.52925014
7.690001563,-2.284863234,3.634618282,10.46276665
7.7,-2.211073875,3.771202803,10.45247173
7.71,-2.101065159,3.943747997,10.48153687
7.72,-1.997022748,3.949369669,10.49332619
7.73,-2.030943871,3.811674356,10.49278164
7.74,-2.200951338,3.758369684,10.53085709
7.750001563,-2.372778177,3.867152691,10.54419804
7.760001563,-2.562312841,3.982026577,10.62887764
7.77,-2.762870312,4.131549358,10.74205589
7.78,-2.841438532,4.26074028,10.79999542
7.79,-2.913848639,4.485048294,10.66445351
7.8,-2.927294493,4.717324257,10.42818451
7.81,-2.855430126,4.923177719,10.14731598
7.82,-2.794770718,5.101488113,9.850991249
7.830001563,-2.518661737,5.250761986,9.599532127
7.84,-2.224500656,5.349011421,9.454090118
7.850001563,-1.966041684,5.354871273,9.351666451
7.86,-1.79028821,5.300005913,9.276908875
7.87,-1.821441531,5.363231659,9.250505447
7.88,-1.946964741,5.580223083,9.120662689
7.89,-2.02581048,5.61400032,9.002619743
7.900001563,-2.160278559,5.422924042,8.876407623
7.910001563,-2.23389554,5.14896059,8.810376167
7.920001563,-2.159522057,4.959492683,8.914081573
7.93,-2.20763588,4.883050919,8.999861717
7.94,-2.261447906,4.906686306,9.079521179
7.950042188,-2.251210213,4.868896484,9.063231468
7.96,-2.095290422,4.618060589,8.845789909
7.97,-1.9458251,4.179164886,8.767662048
7.98,-1.910103559,3.93547368,8.864283562
7.99,-1.905822754,3.70272851,8.983082771
8,-1.893832564,3.490180969,9.030440331
8.01,-1.961282015,3.192466736,9.088092804
8.019998438,-2.012728691,3.020534277,9.113203049
8.03,-1.923961282,2.73258853,9.024666786
8.04,-1.895623446,2.344890594,9.083065033
8.050001563,-1.774208784,1.998612404,9.196147919
8.060001563,-1.662437797,1.655312657,9.269467354
8.07,-1.571381569,1.307387352,9.399185181
8.08,-1.455866098,0.983403921,9.535224915
8.09,-1.400569677,0.762419164,9.615766525
8.1,-1.351565123,0.668049276,9.500239372
8.11,-0.937023461,0.557571232,9.136216164
8.12,-0.470575541,0.220429346,9.039625168
8.13,-0.145442963,-0.058102485,8.971648216
8.14,0.195194468,-0.214022473,8.855817795
8.15,0.364780545,-0.353154302,8.854362488
8.16,0.371934444,-0.484030962,8.81599617
8.17,0.341164142,-0.696942508,8.965346336
8.18,0.236116156,-0.971567035,9.321557045
8.190001563,0.112393402,-1.09158349,9.444924355
8.2,0.168082535,-1.193212628,9.467927933
8.21,0.356343389,-1.40499413,9.686738968
8.22,0.700275242,-1.525719285,9.681863785
8.23,1.178387761,-1.501394272,9.682869911
8.240003125,1.747738481,-1.509343028,9.77204895
8.25,2.170861006,-1.534644961,9.949450493
8.260001563,2.495141029,-1.543426871,10.10112667
8.270001563,2.811874866,-1.582883239,10.14904976
8.28,3.174203634,-1.60878861,10.19996929
8.290004688,3.621440649,-1.591990829,10.05528355
8.3,4.08076334,-1.481397867,9.898568153
8.31,4.419227123,-1.207520366,9.822662354
8.319998438,4.733911037,-0.812649488,9.780016899
8.330001563,5.232393742,-0.55817461,9.447060585
8.34,5.764481068,-0.439106137,9.23144722
8.350001563,6.276418686,-0.394957066,8.995188713
8.36,6.747310162,-0.39913255,8.5337677
8.37,7.087871075,-0.319750398,8.410619736
8.38,7.33373642,-0.048755523,8.398773193
8.39,7.495718479,0.287227571,8.154698372
8.400001563,7.550468922,0.491079479,8.066620827
8.410001563,7.548122883,0.550877035,8.044805527
8.420001563,7.505323887,0.497227788,7.874444008
8.43,7.686881065,0.409714937,7.583700657
8.44,8.003375053,0.510664046,7.41986084
8.45,7.933847904,0.815330982,7.257485867
8.46,7.719796658,1.124240398,7.095561028
8.47,7.659663677,1.448664308,7.240343571
8.480001563,7.459039211,1.731869698,7.508972645
8.490001563,7.06034708,1.885893464,7.35839653
8.5,6.638383389,1.896447062,7.132565975
8.51,6.338284969,1.850047469,7.031942368
8.52,6.173688412,1.711375356,6.759587765
8.529998438,6.006333351,1.675768733,6.704568863
8.54000625,5.769307613,1.901819706,6.715084076
8.550001563,4.857365608,2.52732873,7.15735054
8.56,3.957203388,3.251900434,7.291052341
8.57,3.125611067,3.871634722,7.65430069
8.58,2.554201365,4.368058205,8.008852959
8.59,2.512772083,4.670541286,7.923926353
8.6,3.05192709,4.702661991,8.005196571
8.61,3.492642164,4.962030888,8.292299271
8.62,3.672312498,5.527004719,8.419746399
8.63,3.447516203,6.096796036,8.663571358
8.64,3.056667566,6.618253231,8.709780693
8.65,2.41466713,7.174110413,8.92076683
8.66,2.00403285,7.690529823,8.873591423
8.67,2.145578146,8.063548088,9.120117188
8.679998438,2.720674992,8.312410355,9.639582634
8.690001563,3.656587601,8.75617981,10.3316021
8.7,4.712803841,9.420514107,11.10227776
8.71,5.72753334,10.0400753,11.82500935
8.72,6.489454746,10.41894245,12.32633781
8.73,7.144431591,10.67383957,12.55235958
8.74,7.623339176,10.74582767,12.47743988
8.75,7.902255058,10.77275753,12.34144878
8.760001563,8.099210739,10.771245,12.04747963
8.770001563,8.30843544,10.58206558,11.58158588
8.78,8.549291611,10.23089314,11.11536026
8.790004688,8.719614983,9.86123848,10.79134655
8.8,8.682916641,9.520112038,10.37108803
8.81,8.505544662,9.165904045,9.86909008
8.82,8.265148163,8.821876526,9.474441528
8.830001563,8.103778839,8.524143219,9.133324623
8.84,8.081187248,8.187115669,8.727669716
8.850001563,8.101231575,7.753707886,8.405438423
8.86,7.909771919,7.281580925,8.07262516
8.87,7.566854954,6.791296482,7.632369995
8.88,7.021924973,6.272434711,7.206977844
8.890003125,6.465004921,5.760123253,6.799848557
8.900001563,5.993347645,5.199813366,6.43366003
8.910001563,5.529820442,4.649922371,6.182929993
8.92,5.210031509,4.172116756,6.028101444
8.93,4.962662697,3.808063745,6.027153492
8.94,4.744876385,3.556730032,6.124032497
8.95,4.554278851,3.287238836,6.233131409
8.96,4.426849842,3.057050705,6.296817303
8.969998438,4.425911427,2.825129271,6.20939064
8.980001563,4.577301502,2.516612291,5.953488827
8.990001563,4.856140137,2.149504662,5.789524078
9,5.101861477,1.742882967,5.659088135
9.01,5.179539204,1.493790269,5.774622917
9.019998438,5.226044178,1.380352974,5.742933273
9.03,5.356748581,1.271014571,5.644042969
9.04,5.474753857,0.99390012,5.727428436
9.050001563,5.731957912,0.641301274,5.954829693
9.060001563,5.949715614,0.296210617,6.30602169
9.07,5.831422806,-0.047922339,6.609549046
9.08,5.631420612,-0.308315694,7.158394814
9.09,5.492097378,-0.645199001,7.759147644
9.1,5.273353577,-1.087408066,8.45959568
9.11,5.061648846,-1.525374532,9.21985054
9.12,4.943192959,-1.810562253,9.994663239
9.130001563,4.824613094,-2.013715029,10.54674625
9.14,4.45721817,-2.123810053,10.86855602
9.150004688,3.891793966,-2.139583111,10.89811039
9.16,3.108947277,-1.943641543,10.76618862
9.17,2.297466278,-1.684617758,10.49284744
9.18,1.704987526,-1.372318029,10.30878162
9.190001563,1.383273959,-1.132782936,10.18184948
9.2,1.354141235,-1.068398118,10.17000294
9.21,1.488934875,-1.113955021,10.20409775
9.22,1.893947601,-1.203469396,10.28349781
9.23,2.167298317,-1.342697024,10.30915546
9.24,2.168773174,-1.354945779,10.14391708
9.25,2.009903431,-1.242293715,9.822213173
9.260001563,1.717523575,-1.080924511,9.476805687
9.270001563,1.266724229,-0.894981265,9.089806557
9.28,0.883106053,-0.727559566,8.798546791
9.29,0.471916288,-0.514686286,8.672392845
9.3,0.257491589,-0.287706405,8.717317581
9.31,0.28524518,-0.138059244,8.940361023
9.32,0.400272191,-0.051207185,9.119887352
9.330001563,0.842749357,-0.213907555,9.540376663
9.34,0.919430852,-0.37602374,10.03438663
9.350001563,0.558730066,-0.068234749,10.01819229
9.36,0.134209365,0.51853621,10.1296854
9.37,-0.298193008,1.087944388,10.23768234
9.38,-0.315402538,1.42171526,10.03519154
9.39,-0.062890887,1.402130604,9.921562195
9.399998438,0.047510538,1.437229633,9.718504906
9.410001563,0.290952951,1.655714869,9.470122337
9.42,0.487114668,1.943440437,9.478002548
9.43,0.552102864,2.173791409,9.639084816
9.44,0.603424966,2.323429108,10.13581371
9.45,0.305260718,2.528200388,10.60018349
9.46,0.161397919,2.908389807,10.59668827
9.47,0.121328562,3.237889528,10.56597519
9.480001563,-0.036602553,3.562275171,10.37488937
9.490001563,0.047931917,3.761865377,10.10471916
9.5,0.285340935,3.878855705,9.907255173
9.51,0.43251732,3.986498833,9.640627861
9.52,0.577318609,4.128695488,9.39629364
9.529998438,0.522462666,4.306967735,9.484131813
9.54,0.332774878,4.670282841,9.402795792
9.550001563,0.326166868,5.014348984,9.331515312
9.56,0.269692451,5.181828022,9.302545547
9.57,0.131949246,5.171963692,9.113451958
9.58,0.099196561,5.076080799,8.870718956
9.59,-0.032149341,5.04731226,8.696736336
9.6,-0.121299833,5.097465992,8.570006371
9.61,-0.19964768,5.256479263,8.475799561
9.62,-0.26822719,5.40378952,8.404663086
9.630001563,-0.34394142,5.483267307,8.452959061
9.64,-0.387515903,5.491877079,8.488471031
9.65,-0.531349957,5.379062176,8.621817589
9.66,-0.813664615,5.240830898,8.803939819
9.67,-1.042579055,5.114043236,8.899879456
9.68,-1.314579487,5.05829668,8.861889839
9.690001563,-1.527280331,5.029987812,8.750645638
9.7,-1.725520253,4.992791176,8.652050972
9.71,-1.95713532,4.955212116,8.464221954
9.72,-2.15247345,4.993423462,8.417956352
9.73,-2.353069305,5.080533981,8.69078064
9.74,-2.65178895,5.125458717,9.072865486
9.75,-2.877590895,5.09304142,9.412746429
9.760001563,-3.03468895,5.023591518,9.735332489
9.770001563,-3.133061886,4.976233006,9.944001198
9.78,-3.223198652,5.01536417,9.92633152
9.79,-3.174663544,5.087256908,9.79062748
9.8,-3.148327112,5.151575089,9.615821838
9.81,-3.065363407,5.209533691,9.46757412
9.82,-2.933682203,5.239269733,9.442531586
9.830001563,-2.774755239,5.175679684,9.444263458
9.840001563,-2.553837299,5.086299419,9.480262756
9.850001563,-2.389767647,4.996162415,9.544131279
9.86,-2.199419022,5.009531498,9.602780342
9.87,-1.960429788,4.989334106,9.673810959
9.88,-1.713558793,4.881269455,9.806027412
9.89,-1.513097048,4.779065609,9.939241409
9.9,-1.27360034,4.752222061,10.04331207
9.910001563,-1.020351291,4.631056309,10.03235626
9.920001563,-0.768318474,4.427501202,9.977059364
9.93,-0.604995608,4.207493305,9.861516953
9.94,-0.505732,4.050424099,9.733272552
9.95,-0.435744703,3.934822559,9.545125961
9.96,-0.335781991,3.803179741,9.489581108
9.97,-0.346211135,3.673413992,9.313941956
9.98,-0.304542452,3.49151206,9.44374752
9.99,-0.260546595,3.406584978,9.52528286
10,-0.18166244,3.316802502,9.710165024
10.01,-0.129669964,3.217998505,9.738223076
10.02,-0.026776752,3.06570816,9.833618164
10.03,0.078481928,2.976902485,9.752666473
10.04,0.200327635,2.898200274,9.607154846
10.05000156,0.377287865,2.801234961,9.32242775
10.06000156,0.448376507,2.741839647,9.161892891
10.07,0.462914079,2.732224464,8.94246769
10.08,0.477106929,2.750746012,8.792724609
10.09,0.499708176,2.825272799,8.735753059
10.1,0.573028207,2.906215906,8.664710999
10.11000625,0.756529391,2.97044754,8.667565346
10.12000156,0.903198183,2.962680817,8.88206768
10.13,0.955688655,2.927830935,9.075777054
10.14,0.973041832,2.897367001,9.23255825
10.15,0.926316619,2.890098095,9.253896713
10.16,0.910036027,2.860955954,9.280280113
10.17,0.941859782,2.75860858,9.277511597
10.18,0.967046738,2.675616026,9.180949211
10.19000156,0.937521458,2.657582998,9.097333908
10.2,0.963216007,2.696512699,8.97311306
10.21000625,1.107844949,2.779850006,8.978524208
10.22,1.240493298,2.83529973,9.066718102
10.23,1.311917186,2.87953496,9.215167046
10.24,1.37329483,2.900402784,9.340345383
10.25,1.435180187,2.968340635,9.349012375
10.26000156,1.570376039,2.972755671,9.352594376
10.27000156,1.586915135,2.983950853,9.252114296
10.28000156,1.597947598,3.011187315,9.16289711
10.29,1.64793849,3.066474199,9.132212639
10.3,1.735958934,3.144917965,9.129828453
10.31,1.824305058,3.230314255,9.092391968
10.32,1.947903275,3.290255547,9.137700081
10.33000156,1.947568059,3.296968937,9.276449203
10.34,1.944388628,3.319656372,9.45497036
10.35000156,1.93519485,3.259475708,9.450230598
10.36000625,1.862190843,3.213880539,9.455008507
10.37,1.836151481,3.255347967,9.405180931
10.38,1.834418058,3.341443539,9.3081007
10.39,1.906780481,3.365950584,9.191052437
10.4,1.943469167,3.356871843,9.113174438
10.41000313,1.918962121,3.365136623,9.042161942
10.42000156,1.847643733,3.347103357,8.900742531
10.43,1.795268178,3.322663307,8.881856918
10.44,1.66242826,3.275823355,8.943779945
10.45,1.56461072,3.241136074,8.999306679
10.46,1.586963058,3.219061613,9.09961319
10.47,1.641857266,3.21281743,9.180586815
10.48000156,1.702928543,3.218132496,9.203464508
10.49000156,1.751042485,3.231147528,9.153885841
10.5,1.804002166,3.209982634,9.039806366
10.51,1.806846499,3.202828884,8.984491348
10.51999844,1.760494709,3.200128078,8.887917519
10.53,1.678469419,3.220775843,8.837869644
10.54,1.604344964,3.21570015,8.847101212
10.55000156,1.5499295,3.222691059,8.866898537
10.56,1.529636264,3.224108458,8.882708549
10.57,1.489088058,3.192878485,8.915777206
10.58,1.441079497,3.186318398,8.952102661
10.59,1.393214583,3.199371576,8.954774857
10.6,1.353173971,3.192524195,8.960348129
10.61000156,1.321417332,3.156591892,8.965930939
10.62,1.281280875,3.149122,8.957857132
10.63000156,1.237945914,3.158574343,8.958211899
10.64,1.158535004,3.180859566,8.975413322
10.65,1.089524508,3.223600864,9.042717934
10.66,1.044580579,3.247198105,9.094405174
10.67,0.964365244,3.252714396,9.120136261
10.68,0.959892869,3.273917437,9.200045586
10.69000156,0.922935963,3.256554604,9.220300674
10.7,0.856195211,3.223821163,9.226122856
10.71,0.837166131,3.189172268,9.275261879
10.72,0.83534652,3.176090479,9.300467491
10.73,0.800036848,3.147982359,9.338401794
10.74,0.857363582,3.17897296,9.372256279
10.75,0.917821944,3.173303604,9.331048012
10.76000156,0.89659977,3.17269063,9.323892593
10.77,0.883077323,3.146325588,9.283727646
10.78000156,0.697785258,3.156400442,9.283928871
10.79,0.593484282,3.161160231,9.280434608
10.8,0.489144951,3.167720318,9.244386673
10.81,0.392907649,3.136978626,9.294502258
10.82,0.373294324,3.090445042,9.36879921
10.83000156,0.369549811,3.071904421,9.435166359
10.84,0.385418564,3.050528765,9.486314774
10.85000156,0.415882409,3.032763958,9.450105667
10.86,0.432622641,2.988518953,9.401925087
10.87,0.369224191,2.947166443,9.325942039
10.88,0.318639517,2.941726685,9.254279137
10.89,0.269271076,2.95388937,9.214802742
10.89999844,0.202683538,2.955775976,9.215942383
10.91000156,0.168494329,2.98765707,9.278690338
10.92,0.203430519,3.011081934,9.42052269
10.93,0.202310041,2.975887299,9.522256851
10.94,0.243691415,2.929592848,9.555421829
10.95,0.188126788,2.821298361,9.693049431
10.96,0.231911942,2.84207058,9.423387527
10.97,0.223685473,2.942406654,9.347126007
10.98000156,0.106139742,2.930311203,9.345545769
10.99000156,0.139974609,2.891870022,9.327321053
11,0.227209732,2.874784946,9.351062775
11.01000156,0.238768935,2.858801126,9.359882355
11.02,0.230389237,2.886190891,9.388852119
11.03,0.193824992,2.933720589,9.36533165
11.04,0.166090548,2.929995298,9.289808273
11.05000313,0.127227873,2.910372257,9.335672379
11.06000156,0.132801577,2.899119616,9.263376236
11.07,0.109194748,2.867602348,9.232759476
11.08,0.130416945,2.830664635,9.190028191
11.09,0.16859968,2.794291735,9.174551964
11.1,0.145337611,2.801349878,9.243265152
11.11,0.128626093,2.797519207,9.298228264
11.12,0.071902663,2.780185223,9.315217018
11.13,0.075130045,2.762784243,9.342146873
11.14,0.041017462,2.790221691,9.331534386
11.15,-0.046246398,2.818320036,9.254891396
11.16,-0.166626856,2.863867283,9.275271416
11.17,-0.272670835,2.908054829,9.291838646
11.17999844,-0.36147657,2.907298088,9.414863586
11.19000156,-0.400990456,2.887541294,9.451025009
11.2,-0.409743667,2.869316578,9.477255821
11.21,-0.334948808,2.859011889,9.512373924
11.22,-0.277746528,2.829132318,9.501255035
11.23,-0.243729725,2.821413279,9.512105942
11.24,-0.247196525,2.828327894,9.535722733
11.25004375,-0.233970955,2.807929277,9.506225586
11.26000156,-0.270602256,2.807929277,9.49365139
11.27,-0.31441614,2.772016287,9.50556469
11.28,-0.338616729,2.759508848,9.525244713
11.29,-0.336375743,2.747499466,9.527112007
11.3,-0.297963172,2.745306492,9.577103615
11.31,-0.252502084,2.804883718,9.528701782
11.31999844,-0.143000871,2.822706223,9.444646835
11.33000156,0.006263231,2.872792959,9.378183365
11.34,0.10304644,2.909797668,9.316547394
11.35000313,0.12153925,2.933423758,9.256262779
11.36,0.08133582,2.943450689,9.203120232
11.37,0.027188553,2.969307899,9.19243145
11.38,-0.030368052,3.000250578,9.192576408
11.39,-0.014135366,2.98189187,9.236639023
11.39999844,0.036037523,2.96337986,9.271689415
11.41000156,0.118943937,2.91017127,9.34070015
11.42,0.186412543,2.875254154,9.355085373
11.43,0.264310271,2.853792429,9.355304718
11.44,0.257941693,2.83685112,9.353093147
11.45,0.263524979,2.827418089,9.287405014
11.46,0.249609888,2.834801674,9.216155052
11.47,0.250289828,2.822361469,9.128698349
11.48,0.291058302,2.810898066,9.081409454
11.49,0.324356854,2.825991154,9.063661575
11.5,0.377450675,2.816711187,9.037948608
11.51,0.481387764,2.881804705,9.125835419
11.51999844,0.62396723,2.958898067,9.156404495
11.53,0.791973174,2.977294922,9.122817993
11.54,0.916940928,2.962901115,9.125863075
11.55000156,0.944455087,2.947731495,9.089471817
11.56,0.899712205,2.917516708,9.052705765
11.57,0.806711853,2.927246571,9.051050186
11.58,0.681313157,2.955594063,8.979299545
11.59,0.558701336,3.006035089,8.975239754
11.6,0.537565291,3.015592575,9.043914795
11.61,0.527385175,2.995318651,9.126104355
11.62000156,0.512818813,2.924890757,9.171735764
11.63000156,0.513987184,2.889456511,9.171927452
11.64,0.489125818,2.882206917,9.16326046
11.65,0.383072257,2.861157179,9.097468376
11.66,0.312663585,2.85568881,9.065779686
11.67,0.209923595,2.908533573,9.068364143
11.68,0.114739716,2.941391706,9.138534546
11.69000156,0.075082161,2.95391798,9.214659691
11.7,0.065313816,2.918091297,9.28028965
11.71,0.067640983,2.844713688,9.399656296
11.72,0.019574992,2.779093504,9.392634392
11.73000156,-0.004673481,2.740795851,9.359002113
11.74,-0.060621183,2.737721682,9.328211784
11.75,-0.185876235,2.780328751,9.224428177
11.76000156,-0.312232614,2.89709878,9.185249329
11.77000156,-0.440025538,3.015219212,9.295861244
11.78,-0.539068878,3.090598345,9.413291931
11.79,-0.548128486,3.107568264,9.519471169
11.8,-0.512943327,3.013093233,9.690206528
11.81,-0.471705586,2.905679703,9.822585106
11.81999844,-0.443894565,2.814632893,9.856958389
11.83000313,-0.407445222,2.729734659,9.823879242
11.84,-0.410155475,2.673691034,9.793578148
11.85000156,-0.416332513,2.621143103,9.729030609
11.86,-0.458269328,2.621277332,9.695721626
11.87,-0.500914872,2.587116718,9.684526443
11.88,-0.507733524,2.55209446,9.643613815
11.89,-0.471073538,2.507274866,9.620782852
11.9,-0.422758549,2.462627888,9.61774826
11.91000156,-0.303766727,2.429674149,9.686029434
11.92,-0.127065063,2.442688942,9.690551758
11.93000469,-0.113149971,2.46922636,9.518110275
11.93999844,-0.170993879,2.578813791,9.384456635
11.95,-0.294007957,2.705696821,9.380271912
11.96,-0.362395942,2.814834118,9.322523117
11.96999844,-0.315392971,2.826671124,9.293266296
11.98000781,-0.270947009,2.762563944,9.282156944
11.99,-0.233348459,2.683967113,9.296953201
12,-0.209550098,2.557581902,9.148341179
12.01,-0.227880105,2.466525555,9.033743858
12.02,-0.327670425,2.448147774,8.997926712
12.03000313,-0.407090873,2.464265585,8.989345551
12.04,-0.414943874,2.46776104,9.003395081
12.05000156,-0.420699537,2.449632168,9.076170921
12.06000156,-0.396125436,2.439250946,9.167943954
12.07,-0.294438899,2.422644615,9.223729134
12.08000156,-0.127725869,2.449469328,9.360255241
12.09,0.077371016,2.516382456,9.463541985
12.1,0.252233922,2.60736227,9.488230705
12.11,0.439498812,2.687462568,9.449684143
12.12000156,0.575613976,2.752402782,9.362649918
12.13,0.667551279,2.775348902,9.315560341
12.14,0.727894723,2.765867949,9.208386421
12.15,0.751099348,2.766720295,9.144529343
12.16,0.731687188,2.737214088,9.064428329
12.17,0.647746444,2.748859406,9.065234184
12.18,0.562924683,2.776593924,9.06029129
12.19000156,0.447533727,2.803830385,8.947265625
12.20000156,0.424424917,2.826479435,8.884718895
12.21,-0.19945614,3.248491049,8.545797348
12.22,0.15375562,3.229136229,8.924386024
12.23,0.288376808,2.888096571,9.321277618
12.24,0.225169867,2.538160086,9.372897148
12.25000313,0.12743856,2.384404421,9.617124557
12.26,0.019048268,2.453635216,9.722968102
12.27000156,-0.098104805,2.588505507,9.706438065
12.28,-0.205192655,2.619457722,9.681078911
12.29,-0.29454425,2.631447792,9.585042
12.3,-0.267959028,2.572828293,9.464853287
12.31,-0.274116933,2.542163372,9.332894325
12.32,-0.319137484,2.566450119,9.063269615
12.33,-0.41663897,2.659191847,8.839037895
12.34000156,-0.489518464,2.706798077,8.729452133
12.35,-0.634731591,2.750113964,8.738500595
12.36,-0.555981517,2.784791708,8.944249153
12.37,-0.688926697,2.73718524,9.042286873
12.38,-0.962622285,2.628095865,9.204201698
12.39,-1.283569813,2.580843925,9.462928772
12.4,-1.478429079,2.56826973,9.637073517
12.41000156,-1.562120795,2.539816856,9.69786644
12.42,-1.593302846,2.470710754,9.768496513
12.43,-1.59073627,2.385524988,9.818026543
12.44,-1.567780614,2.331559658,9.84338665
12.45,-1.603770256,2.317424297,9.823763847
12.46,-1.647986412,2.354170561,9.756515503
12.47,-1.704671502,2.423602343,9.681700706
12.48,-1.760887384,2.480392933,9.600701332
12.49000156,-1.837683797,2.570510626,9.547310829
12.5,-1.901513219,2.636830091,9.49960804
12.51,-1.991793752,2.671545982,9.332598686
12.52,-2.016952038,2.704174042,9.262352943
12.52999844,-2.088145971,2.735451937,9.206423759
12.54,-2.166637421,2.731075287,9.084807396
12.55000156,-2.35740757,2.767486334,9.008337021
12.56,-2.567963123,2.853658438,8.876695633
12.57,-2.705457449,2.989917278,8.847044945
12.58,-2.894953728,3.092743397,8.876195908
12.59,-3.053976536,3.152090788,8.802570343
12.6,-3.088692427,3.146545887,8.686479568
12.61,-3.075256109,3.164186478,8.571893692
12.62000156,-2.974747658,3.144266605,8.646611214
12.63000156,-2.895126104,3.062222242,8.736211777
12.64,-2.964021683,2.938020468,8.833522797
12.65,-3.112902641,2.902318239,8.921551704
12.66,-3.511987209,2.950374603,8.867471695
12.67,-3.879899502,3.100797415,8.639917374
12.68,-4.13521719,3.286664248,8.379571915
12.69000156,-4.131951332,3.3607409,8.27358532
12.7,-3.969002008,3.257483721,8.285307884
12.71,-3.792616367,3.041277647,8.346321106
12.72,-3.663530588,2.885740757,8.372907639
12.73,-3.694932938,2.873760223,8.29546833
12.74,-3.861856699,2.965917826,8.151260376
12.75,-4.036537647,3.058851004,7.981990337
12.76000156,-4.145569801,3.096775293,7.83818531
12.77,-4.230994701,3.122441053,7.830102444
12.78,-4.26074028,3.112165213,7.806639194
12.79,-4.281397343,3.064721584,7.883905888
12.8,-4.302179337,3.032476664,7.92081356
12.81,-4.354899406,3.046832323,7.918247223
12.82,-4.483573437,3.102779865,7.840425968
12.83,-4.626162529,3.161131382,7.715620995
12.84,-4.754635334,3.23786068,7.624679565
12.85000156,-4.778395653,3.239048243,7.550440311
12.86,-4.790538788,3.223907471,7.520418167
12.87,-4.798075676,3.185628891,7.55413723
12.88,-4.863408566,3.164502382,7.626278877
12.89,-4.878099442,3.140713692,7.721328735
12.89999844,-4.934880257,3.157070875,7.655440331
12.91000156,-5.082803726,3.271255016,7.576556206
12.92,-5.249334812,3.328304052,7.039632797
12.93,-5.695441723,3.71047616,6.36473608
12.94,-5.203232288,3.382700443,7.825199127
12.95,-4.961762428,3.194334269,8.132222176
12.96,-4.930044174,3.233915091,8.422848701
12.97,-4.918255329,3.334529161,8.261106491
12.98,-5.039794445,3.416908741,8.023247719
12.99000625,-5.234787941,3.491770744,7.843682289
13,-5.486485481,3.539779186,7.577073574
13.01,-5.458942413,3.668529749,7.395420551
13.02,-5.430116177,3.702153921,7.261756897
