Time (s),Acceleration x (m/s^2),Acceleration y (m/s^2),Acceleration z (m/s^2)
0,-2.08784914,5.277873993,7.431783676
0.01,-1.717858791,4.765610218,6.857002735
0.019998437,-1.635028958,5.084345818,7.523548603
0.030001562,-1.428706288,5.07757473,7.876924515
0.04,-1.436693311,5.051334381,8.071811676
0.050001562,-1.537393451,4.959961891,8.640942574
0.06,-1.497381568,4.518892765,8.821388245
0.07,-0.759507775,3.930761814,9.742994308
0.08,-0.580785453,3.752164125,11.09520054
0.09,-0.033959355,3.77390337,9.963469505
0.100001562,0.201687545,3.716088295,9.33896637
0.11,0.097233318,3.864375353,9.857339859
0.12,-0.994656682,4.385870934,9.746413231
0.129998437,-1.587087512,4.894973755,8.987669945
0.139998437,-1.689272046,5.19499588,8.645540237
0.150004687,-1.445906281,5.171178341,8.783482552
0.159998437,-0.932091415,4.761406422,8.627821922
0.170039062,-0.389172673,4.320374966,8.565936089
0.18,0.072640076,4.015008926,8.775304794
0.19,-0.163667619,3.116149187,8.675849915
0.2,-0.971969247,3.312693834,9.99244976
0.210001562,-1.372988462,4.444758892,9.795320511
0.220001562,-1.291087627,5.041623592,9.458140373
0.230001562,-0.851014197,4.958343506,9.707060814
0.240001562,0.221616879,4.47413063,9.556418419
0.25000625,1.296977282,3.966512203,9.96605587
0.260003125,1.602228403,3.778385401,10.23847771
0.270001562,1.690028548,3.92590642,9.774280548
0.280001562,1.523133636,4.27376461,9.423368454
0.290001562,1.210651994,4.683719158,9.130203247
0.300001562,1.008341908,4.979297638,8.888511658
0.310001562,0.817198455,5.307102203,8.798844337
0.320003125,1.030751705,5.484100819,8.996117592
0.330003125,1.531321764,5.250867367,9.195755005
0.340001562,1.743524671,4.795901775,9.687428474
0.350009375,1.979458809,4.456442356,9.035909653
0.360001562,1.918770671,4.301537514,8.007158279
0.370001562,2.404812813,4.406815529,6.792924404
0.380001562,2.286165714,4.795413494,7.436121941
0.390003125,2.130868196,4.96544981,7.221917629
0.400007812,2.25233078,4.55735302,7.243733406
0.410001562,1.615655184,5.29161644,7.848393917
0.420001562,1.093958616,5.871836662,8.408733368
0.430003125,0.848399699,5.610571861,8.933466911
0.440001562,0.739128351,4.891009331,8.762242317
0.450009375,0.65604955,4.570003986,8.475952148
0.460003125,0.848888099,4.591743469,8.334934235
0.470003125,1.271752,4.570137978,8.222732544
0.480001562,1.657524943,4.533957005,8.301846504
0.490001562,1.662954926,4.533564568,8.279905319
0.500001562,1.343951583,4.598993301,7.807003021
0.510001562,0.941754401,4.662803173,7.691420555
0.52000625,0.977035344,4.671393871,7.835541725
0.530003125,0.961645424,4.781344891,7.44137001
0.540003125,1.090759993,4.857768059,7.522935867
0.550003125,1.018742323,5.301557064,8.068985939
0.560001562,1.022247434,5.212014198,7.939210892
0.570001562,1.039763451,4.966330528,8.132403374
0.580001562,0.924851358,4.680673599,8.186522484
0.590001562,0.77969569,4.409132957,8.105694771
0.600001562,0.565002859,4.474044323,7.92847538
0.610003125,0.583696783,4.583727837,7.894573212
0.620003125,0.857382774,4.869739056,7.688662529
0.630001562,1.259886384,4.799828529,8.011335373
0.640001562,1.345637083,5.106784344,8.171956062
0.650001562,1.448463202,5.182287693,8.614068985
0.660001562,1.292677283,5.013132572,8.891806602
0.670001562,1.12787962,5.043624878,9.065040588
0.680003125,1.012459993,5.06775856,8.904601097
0.690003125,1.166071892,4.892503262,8.92529583
0.700001562,1.419129491,4.63608408,9.060770035
0.71,1.746282816,4.407160282,9.320291519
0.720001562,2.033893347,4.598073959,9.237089157
0.730001562,1.509591937,4.821634769,8.317025185
0.740001562,1.753063202,4.415348053,8.683634758
0.750003125,1.846992493,4.460177422,8.754906654
0.760003125,2.075112104,4.742089748,8.646812439
0.770001562,2.49910593,5.037630081,8.369592667
0.780001562,2.72367239,5.207761765,8.510380745
0.790001562,3.120966196,4.789973736,8.158242226
0.800001562,3.104848623,4.856350422,8.658555031
0.810001562,1.785921216,3.959913731,8.146050453
0.820003125,1.99440825,3.376954317,8.440527916
0.830003125,2.152272224,3.782187223,8.415715218
0.840001562,2.412024021,4.69899416,8.278488159
0.850001562,2.658444881,5.066102028,8.149805069
0.860001562,2.85406065,4.694588661,7.631910324
0.870001562,2.827236176,4.105338573,7.24023819
0.880001562,2.744300842,3.727589846,7.165491104
0.890003125,2.591397524,3.694502115,7.265022755
0.900003125,2.219012976,3.641216755,7.170835018
0.910001562,2.154139757,3.326264381,7.716023445
0.920001562,2.479013681,3.152014256,6.179300308
0.930001562,1.939169168,3.1342206,6.87688446
0.940001562,1.522961259,3.101228476,6.643641472
0.950001562,1.31712687,3.175525427,6.706235409
0.960003125,1.00064218,2.958591461,6.915689468
0.970001562,0.932168007,2.621296406,7.179607391
0.980001562,0.855792999,2.402121544,7.638298035
0.990001562,0.93759805,2.208047628,7.736326218
1,0.932771385,1.943699002,7.710593224
1.010001562,1.02848196,1.66294539,7.272598267
1.020001562,1.00670433,1.33262217,6.953738213
1.030003125,0.970092177,0.999627054,6.365866184
1.040001562,1.037120223,0.959557712,6.211987019
1.050003125,1.291920781,0.959663033,6.124597549
1.060001562,1.684818864,0.800534844,6.078542709
1.07000625,1.976480484,0.492027581,6.381658077
1.080001562,2.028932571,0.122793809,6.934153557
1.090001562,1.867745399,-0.289162099,7.775495529
1.100001562,1.1378299,-0.706136227,8.459950447
1.110003125,1.226156831,-0.903638721,8.863506317
1.120001562,1.091076016,-0.691684842,9.453169823
1.130001562,1.276789427,-0.607188702,9.087939262
1.140001562,1.944924831,-0.74090004,8.82339859
1.150001562,2.585009813,-0.682098448,8.408110619
1.160001562,3.096018791,-0.383570254,7.994756222
1.170001562,3.592518568,-0.042980708,7.686785221
1.180003125,3.881709576,0.260738134,7.581143379
1.190003125,3.880732536,0.654258668,7.661703587
1.200001562,3.848037481,1.094638586,7.929585934
1.210001562,4.087486267,1.316006422,8.008835793
1.22000625,4.36054039,1.383886814,8.211057663
1.230001562,4.375441551,1.510386825,8.311183929
1.240001562,4.34646225,1.640909195,8.151106834
1.250003125,4.188224792,1.767715693,8.057570457
1.260001562,4.153068066,2.067824125,8.240487099
1.270001562,4.441559792,2.517388105,8.677495956
1.280001562,5.105433941,2.829314232,9.138084412
1.290001562,5.472388268,3.013342142,9.306731224
1.300001562,5.472867012,3.054225445,8.95867157
1.310001562,5.285975933,2.95304656,8.3481884
1.320003125,4.843201637,2.890701532,7.799197674
1.330003125,4.309744835,2.974211216,7.843825817
1.340001562,3.941123962,3.339978218,8.739123344
1.350001562,4.306325912,3.788278103,9.888733864
1.360001562,4.364984035,4.080811501,10.92390919
1.370003125,5.125966549,3.999101877,10.95962143
1.380001562,5.446195602,4.128369808,11.13626575
1.390003125,5.465081215,4.329913616,10.52739048
1.400003125,5.482740879,4.365060329,9.882622719
1.410001562,5.437289238,4.418518066,9.528185844
1.420009375,5.317119598,4.686477184,9.804084778
1.430003125,5.3862257,5.024394989,10.51926994
1.440001562,5.457936764,5.173122883,11.13220501
1.450001562,5.575530529,5.15701437,11.4991312
1.460003125,5.753228188,5.063985348,11.52443218
1.470004687,5.833137035,4.956782818,11.24006939
1.480003125,5.75137043,4.790596485,10.74199772
1.490001562,5.463664055,4.630079269,10.31839561
1.5,5.110002041,4.539425373,10.27403736
1.510003125,4.824526787,4.551980495,10.56009579
1.520001562,4.88606739,4.502803802,10.94905758
1.530003125,5.016695023,4.384827137,11.16784954
1.540003125,5.153949738,4.314361095,11.34089279
1.550003125,5.394979,4.40273571,11.42140484
1.560001562,5.057607174,4.407341957,11.44554806
1.570007812,5.30421114,4.069242477,11.07688904
1.580001562,5.263948917,4.143941402,11.24251938
1.590001562,5.202226639,4.238598824,11.19463539
1.600001562,5.27334404,4.105318546,11.39445591
1.610003125,5.2139678,3.962393999,11.54761696
1.620003125,5.153738976,3.878098965,11.56614971
1.630001562,5.162301064,3.867602825,11.55693722
1.640001562,4.913945675,3.69427228,11.42846298
1.650001562,5.13449955,3.551309586,11.53035069
1.660001562,4.91902113,3.71381855,11.44827747
1.670001562,4.891516685,3.754050732,11.58384609
1.680003125,4.710419178,3.51834631,11.8613348
1.690003125,4.669190884,3.329530001,11.93954849
1.700001562,4.619640827,3.546454191,11.76873589
1.710001562,4.440477848,3.602679729,11.63262272
1.720001562,4.423766136,3.447487593,11.41576481
1.730001562,4.334615707,3.45181632,10.86297131
1.740001562,4.225239277,3.354506254,10.41215324
1.750007812,4.107952118,3.296422958,10.1131649
1.760001562,4.043499947,3.212750435,9.854199409
1.770001562,3.980025053,3.198107481,9.676951408
1.780001562,3.877907515,3.249257088,9.5477314
1.790001562,3.743075609,3.271360397,9.43354702
1.800001562,3.629331827,3.316898108,9.197010994
1.810001562,3.512188435,3.327231646,8.903241158
1.820003125,3.52489686,3.367540359,8.619701385
1.830003125,3.671565533,3.377356529,8.403206825
1.840001562,3.915869951,3.41032958,8.223288536
1.850001562,4.092112064,3.49202919,8.072501183
1.860001562,4.286109447,3.574313164,7.907195568
1.870001562,4.446166515,3.629963875,7.778904438
1.880001562,4.603829384,3.748850346,7.632255077
1.890003125,4.847223759,3.810802698,7.482540607
1.900003125,5.06212759,3.743094683,7.362102985
1.910001562,5.205750942,3.728614569,7.217464447
1.920001562,5.246442795,3.696542025,7.130660057
1.930001562,5.296826363,3.649146318,7.035984993
1.940001562,5.375049591,3.518011093,6.990159035
1.950001562,5.422876358,3.34051466,7.062119007
1.960003125,5.43782568,3.195799351,7.177347183
1.970003125,5.608043671,3.079345465,7.169762135
1.980003125,6.200187206,2.879592419,7.067175388
1.990001562,6.692655563,2.628258705,7.312533379
2.000001562,7.007818699,2.460942268,7.462994576
2.010003125,7.14397192,2.365231752,7.434714317
2.020001562,7.04621172,2.238262415,7.419879913
2.030003125,6.920353413,2.088117361,7.423595428
2.040003125,6.798747063,1.885644436,7.540682793
2.050003125,6.623233318,1.763176203,7.708468437
2.060001562,6.63954258,1.69613862,7.716014862
2.070001562,6.813514709,1.587221622,7.709319592
2.080001562,7.115758896,1.46725297,7.753602505
2.090001562,7.579410076,1.424310565,7.778397083
2.100001562,7.898135662,1.433006287,7.827209949
2.110003125,7.979337692,1.456526875,7.914646149
2.120003125,7.826683521,1.513240814,7.973409653
2.130001562,7.553955078,1.577807546,7.992735386
2.140001562,7.343276024,1.621889591,7.955548763
2.150001562,7.202630997,1.665061831,7.89897871
2.160001562,7.216564178,1.698178411,7.661052704
2.170001562,7.401913643,1.72618103,7.431783676
2.180003125,7.433019161,1.702248573,7.321852684
2.190003125,7.317130089,1.752488494,7.202045918
2.200001562,7.074166775,1.832004786,6.990695
2.210001562,6.895300388,1.838124394,6.779296875
2.220001562,6.705976963,1.76853931,6.612287045
2.230001562,6.53234911,1.72958076,6.592597008
2.240001562,6.380719662,1.872821093,6.57877779
2.250003125,6.317110538,2.054521799,6.443198681
2.260001562,6.376065254,2.225400925,6.258845329
2.270001562,6.441781521,2.389116287,6.113172531
2.280001562,6.423681259,2.510100126,5.980658054
2.290001562,6.288227081,2.565406084,5.794839382
2.300001562,6.048299313,2.611489773,5.494184971
2.310001562,5.728251934,2.661116838,5.273085594
2.320003125,5.440449715,2.661049843,5.180458546
2.330003125,5.210778713,2.728556633,5.245398998
2.340001562,5.091164589,2.882063389,5.473939896
2.350001562,5.048384666,3.084641457,5.597815514
2.360001562,5.02766037,3.203527927,5.571144104
2.370001562,4.948000908,3.288943529,5.633594513
2.380001562,4.744732857,3.396241903,5.638767242
2.390003125,4.455886841,3.506202936,5.497393131
2.400003125,4.249037266,3.589482784,5.444509983
2.410001562,4.151114464,3.615656137,5.510044098
2.420001562,4.169176579,3.68043375,5.619718075
2.430001562,4.161074638,3.679092884,5.685347557
2.440001562,4.050184727,3.663971186,5.742961884
2.450001562,3.865074635,3.606462479,5.858917713
2.460003125,3.704596043,3.40799284,5.916895866
2.470003125,3.383093119,3.152253628,5.852922916
2.480003125,2.913388968,2.901877642,5.828271866
2.490001562,2.370652199,2.648781776,5.89481163
2.500001562,1.941266537,2.389748335,6.067816734
2.510001562,1.625365973,2.189784765,6.416920185
2.52,1.394210577,2.015410185,6.917078495
2.530003125,1.297274232,1.892070532,7.409049511
2.540003125,1.241824508,1.850401759,7.871330261
2.550003125,1.275324106,1.7331146,8.28629303
2.560001562,1.093747854,1.732310176,8.799880028
2.570001562,0.717618823,1.88761723,9.127031326
2.580001562,0.304839313,2.137160063,9.114131927
2.590001562,-0.150748506,2.182286024,9.134807587
2.600001562,-0.60594368,2.029095411,9.144873619
2.610003125,-0.879409373,1.776535869,9.163624763
2.620003125,-1.058677673,1.591483235,9.313779831
2.630001562,-1.10425365,1.500570655,9.559663773
2.640001562,-1.195712209,1.565376878,9.874062538
2.650001562,-1.270890117,1.883997202,10.15641403
2.660001562,-1.485094547,2.399554968,10.23273182
2.670001562,-1.809010863,2.807900429,10.32039833
2.680003125,-1.932398438,2.909893513,10.37905502
2.690001562,-1.917707562,2.715752363,10.21350288
2.700001562,-1.926020265,2.437153578,9.785543442
2.710001562,-1.971088767,2.304141283,9.408685684
2.720001562,-2.136604548,2.371839762,9.339475632
2.730001562,-2.437670708,2.616134405,9.463331223
2.740001562,-2.936344624,2.993297815,9.737707138
2.750003125,-3.441626549,3.294871569,10.27406502
2.760003125,-3.579235554,3.2727108,10.79004574
2.770001562,-3.362570047,2.842626095,11.0262289
2.780001562,-3.044620037,2.309820414,10.984972
2.790001562,-2.718242407,2.100854397,10.94241142
2.800001562,-2.380047083,2.276713371,11.05536079
2.810001562,-2.326704264,2.862746954,11.03327751
2.820003125,-2.408767939,3.486580133,11.1518755
2.830003125,-2.236002445,3.799952269,11.37912273
2.840001562,-1.73849678,3.741313457,11.27838421
2.850001562,-1.040682793,3.350809574,10.87071037
2.860001562,-0.559247196,2.977352381,10.56904984
2.870001562,-0.343539208,2.916118383,10.57345486
2.880001562,-0.017803283,3.152761221,10.95373249
2.890003125,0.532221437,3.467780828,11.42904854
2.900003125,1.229087353,3.705975056,11.70562553
2.910001562,1.971988916,3.77273488,11.86741734
2.920001562,2.53790164,3.719995499,11.76970387
2.930001562,2.944130659,3.626353502,11.25639629
2.940001562,3.214732885,3.406891346,10.74409485
2.950001562,3.332345486,3.357656956,10.59638309
2.960003125,3.494729996,3.671910286,10.72517109
2.970001562,4.070879936,4.034258366,11.07821941
2.980003125,4.843757153,4.220249653,11.28899574
2.990001562,5.535460949,4.162070274,11.23309708
3,6.123745441,3.954368591,10.83560181
3.010001562,6.476468563,3.632559299,10.16109657
3.020001562,6.469698906,3.374176979,9.459692001
3.030003125,6.292747021,3.264513016,8.882190704
3.040034375,6.258136749,3.234796286,8.553677559
3.050003125,6.358855724,3.26746273,8.561483383
3.060001562,6.573960304,3.208957911,8.87467289
3.070001562,6.773684978,3.188770056,9.278441429
3.080001562,6.879222393,3.189335108,9.507422447
3.090001562,6.900913715,3.114961624,9.437319756
3.100001562,6.810536385,2.966521025,9.199002266
3.110003125,6.647778511,2.911454439,8.721607208
3.120003125,6.481285572,2.864336491,8.235612869
3.130001562,6.382079601,2.805410624,7.963355064
3.140001562,6.314553261,2.682118654,7.811178684
3.150001562,6.414411068,2.58382225,7.867537975
3.160001562,6.643517017,2.595803022,8.001058578
3.170001562,6.831739426,2.631419182,8.139347076
3.180003125,6.869481564,2.606117249,8.155179024
3.190003125,6.787724495,2.51278162,8.061285973
3.200001562,6.648123264,2.291346788,7.929672241
3.210001562,6.594454765,2.077448845,7.851104259
3.220001562,6.594110012,1.915026069,7.790243626
3.230001562,6.675772667,1.82976377,7.684381485
3.240001562,6.903413296,1.797288775,7.686210632
3.250003125,7.300084591,1.797154784,7.724173069
3.260003125,7.700146198,1.924957275,7.791345119
3.270001562,7.985888004,2.150490999,7.791622639
3.280001562,8.229024887,2.393971682,7.745874405
3.290001562,8.434553146,2.547468901,7.600680351
3.300001562,8.547175407,2.565109253,7.356098175
3.310001562,8.630579948,2.507389784,7.190064907
3.320003125,8.622448921,2.386032581,6.985207558
3.330001562,8.602050781,2.258680105,6.809434891
3.340001562,8.62476635,2.252570152,6.795337677
3.350001562,8.657078743,2.246364355,6.926358223
3.360001562,8.601668358,2.259676218,7.19709444
3.370001562,8.476181984,2.288875818,7.59313488
3.380001562,8.301703453,2.180198193,7.995091438
3.390003125,8.070403099,1.992138505,8.404979706
3.400003125,7.766004562,1.754528403,8.710325241
3.410001562,7.350036144,1.58652246,8.916246414
3.420001562,6.886623859,1.460922718,8.991003036
3.430001562,6.471632481,1.324491501,8.95408535
3.440001562,6.102187634,1.148498535,8.92110157
3.450001562,5.807356358,0.990059853,8.866552353
3.460003125,5.589349747,0.916299284,8.837170601
3.470003125,5.438601494,0.93737781,8.857118607
3.480003125,5.261909008,0.880098939,8.856593132
3.490001562,5.045492649,0.751319587,8.785618782
3.500001562,4.660102844,0.603817642,8.696458817
3.510001562,4.253854752,0.574301898,8.73339653
3.52,3.948565245,0.640764952,8.932421684
3.530001562,3.776259184,0.786092997,9.045886993
3.540003125,3.791563034,0.887377322,9.122166634
3.550003125,3.935866356,0.774696589,9.149795532
3.560001562,4.084249496,0.516544223,9.005818367
3.570001562,4.007223129,0.305413932,8.895915031
3.580001562,3.678106546,0.278819144,8.835553169
3.590001562,3.171196699,0.282142282,8.804389954
3.600001562,2.624514103,0.167814374,8.894765854
3.610003125,2.152339458,0.045250412,9.10098362
3.620003125,1.917563915,-0.073358335,9.425837517
3.630001562,1.801713347,-0.216043174,9.931655884
3.640001562,1.865983248,-0.209894866,10.46282387
3.650001562,1.958284497,-0.140463024,10.93894386
3.660001562,1.863292217,-0.109664008,11.30091095
3.670001562,1.649739027,-0.100087203,11.48413277
3.680003125,1.324319124,-0.123090692,11.51612091
3.690003125,0.977341831,-0.227257609,11.32802105
3.700001562,0.633017302,-0.242388964,11.06226444
3.710001562,0.381377161,-0.179277822,10.80037785
3.720001562,0.320535719,-0.130005151,10.59281921
3.730001562,0.356726468,-0.18623057,10.40967274
3.740001562,0.436980098,-0.184478015,10.31200027
3.750003125,0.487947851,-0.106120594,10.20575523
3.760003125,0.439575404,-0.016768988,10.30911636
3.770001562,0.292226672,0.104521267,10.50584316
3.780001562,0.047759533,0.133807138,10.63876915
3.790001562,-0.159750715,0.103965811,10.79924774
3.800001562,-0.330916971,0.101676956,10.76888943
3.810001562,-0.395522118,0.081211321,10.57797527
3.820003125,-0.448845774,0.140386403,10.53175735
3.830003125,-0.37868607,0.320372909,10.53055191
3.840001562,-0.305777848,0.457857549,10.5681591
3.850001562,-0.259014308,0.579779863,10.58199787
3.860001562,-0.239889428,0.67915839,10.57040977
3.870001562,-0.207922041,0.810753286,10.57857895
3.880001562,-0.178013682,0.920953572,10.45953941
3.890003125,-0.162326872,1.062881827,10.29647541
3.900003125,-0.082456306,1.239420652,10.18356419
3.910035937,0.105708793,1.417329073,10.03729916
3.920001562,0.304571182,1.641895533,9.959687233
3.930001562,0.545820475,1.859988213,9.926505089
3.940001562,0.781534433,2.036345005,9.87430954
3.950001562,0.984265864,2.155959368,9.802378654
3.960003125,1.031565666,2.18819499,9.766237259
3.970003125,0.883565724,2.15619874,9.667365074
3.980003125,0.578314602,2.147244453,9.553688049
3.990001562,0.284172565,2.026854515,9.436783791
4,0.022946028,1.89384222,9.441391945
4.010001562,-0.102261141,1.831841946,9.59492588
4.020001562,-0.014882357,1.822600365,9.713007927
4.030001562,0.11118672,1.751808524,9.796891212
4.040003125,0.212585956,1.653023839,9.876006126
4.050003125,0.278579712,1.585248709,9.871006012
4.060001562,0.26485616,1.577165961,9.727489471
4.070001562,0.248709664,1.612772465,9.588690758
4.080001562,0.253660858,1.59375298,9.399874687
4.090001562,0.238797665,1.495303392,9.160915375
4.100001562,0.118723668,1.31557548,8.866457939
4.110003125,-0.099158257,0.991917729,8.56648159
4.120003125,-0.294994354,0.651356936,8.39424324
4.130001562,-0.475220293,0.414838523,8.409422874
4.140001562,-0.576437533,0.345942974,8.608610153
4.150001562,-0.345425844,0.44502461,9.102324486
4.160001562,0.189668655,0.6838606,9.42974472
4.170001562,0.710608602,0.84208858,9.482379913
4.180003125,1.255327821,0.923433959,9.538930893
4.190007812,1.625854373,0.948735893,9.318845749
4.200001562,1.888124824,0.871987402,8.965442657
4.210001562,1.989686847,0.704010189,8.710459709
4.220001562,2.120352745,0.552083731,8.731797218
4.230001562,2.656883717,0.688706458,9.373846054
4.240001562,3.305434704,1.100451708,9.982901573
4.250003125,4.000653267,1.47853446,10.53420067
4.260003125,4.801063538,1.705811143,10.88196278
4.270001562,5.348157883,1.857728004,10.86113262
4.280001562,5.584379673,1.870991945,10.37492943
4.290001562,5.505485535,1.776200652,9.740694046
4.300001562,5.228610516,1.714277029,9.214305878
4.310001562,4.940329552,1.699500084,8.863449097
4.320003125,4.983703136,1.752229929,8.970201492
4.330003125,5.488286018,1.95542109,9.468080521
4.340001562,5.917681217,2.199447632,9.814023972
4.350001562,6.092256546,2.341510057,10.00111675
4.360001562,6.063190937,2.363239765,9.893712044
4.370001562,5.783529282,2.309925795,9.493920326
4.380001562,5.337489605,2.252474546,9.056337357
4.390003125,4.802730083,2.208306313,8.715382576
4.400003125,4.337134361,2.116196394,8.51262188
4.410003125,4.07130146,1.976394296,8.413818359
4.420001562,3.95689702,1.797001481,8.400094986
4.430001562,3.945663452,1.660943866,8.617545128
4.440001562,4.022143841,1.668940425,8.942850113
4.450001562,4.069405079,1.736246228,9.166937828
4.460003125,4.071444988,1.811529517,9.334848404
4.470003125,3.935435295,1.854998708,9.460736275
4.480003125,3.712583065,1.815829515,9.430597305
4.490001562,3.447975874,1.74420464,9.265885353
4.500001562,3.107721567,1.886956453,8.936089516
4.510001562,3.322060108,1.624207258,9.110530853
4.520001562,3.576841354,1.458250761,9.282185555
4.530001562,4.022632122,1.549335718,9.301398277
4.540003125,4.553982258,1.845440984,9.533884048
4.550003125,5.145282745,2.165517092,9.769895554
4.560001562,5.499260902,2.51906395,9.902849197
4.570001562,5.758773327,2.77255249,9.762931824
4.580001562,5.930379868,3.0245471,9.530963898
4.590001562,6.138637066,3.193165779,9.160303116
4.600001562,6.465675354,3.296662331,8.864369392
4.610003125,6.78647089,3.461421728,8.825764656
4.620003125,7.252754688,3.705639839,8.813199997
4.630001562,7.861544132,4.002070904,8.963182449
4.640001562,8.499492645,4.202982426,8.968631744
4.650001562,9.043571472,4.252150059,8.929558754
4.660001562,9.364057541,4.128992081,8.874491692
4.670001562,9.24935627,4.00626564,8.850827217
4.680003125,8.991080284,3.888183355,8.787295341
4.690003125,8.822154045,3.779553652,8.813726425
4.700001562,8.868439674,3.653436661,8.938110352
4.710001562,9.009227753,3.528545618,8.906094551
4.720001562,9.281496048,3.423411369,8.782477379
4.730001562,9.598231316,3.337354183,8.568981171
4.740001562,9.936903954,3.185303211,8.164639473
4.750003125,10.16983128,2.935693502,7.7987957
4.760003125,10.22366333,2.692136049,7.462017536
4.770001562,10.06608582,2.52697444,7.074157238
4.780001562,9.860308647,2.446605921,6.698640823
4.790001562,9.604972839,2.333273888,6.428517342
4.800001562,9.345890045,2.26160121,6.310904503
4.810001562,9.240019798,2.205959797,6.209534168
4.820003125,9.266479492,1.961080909,5.925275326
4.830003125,9.486783981,1.665875912,5.678749084
4.840001562,9.820019722,1.401891232,5.618022919
4.850001562,9.910022736,1.270823002,5.643353462
4.860001562,9.653325081,1.349257112,5.614929676
4.870001562,9.184885979,1.652755618,5.696178913
4.880001562,8.784794807,1.899511695,5.870227814
4.890003125,8.543948174,1.910524964,5.998298645
4.900003125,8.410887718,1.840872884,5.878042698
4.910003125,8.316163063,1.694797873,5.628059387
4.920001562,8.177654266,1.531886816,5.451520443
4.930001562,8.135831833,1.491424799,5.444242001
4.940001562,7.961994171,1.555043459,5.524131775
4.950001562,7.647549152,1.821738362,5.566796303
4.960003125,7.390507698,1.98445797,5.619507313
4.970003125,7.047236443,2.083894014,5.633776665
4.980003125,6.711282253,2.142226219,5.545210361
4.990001562,6.538640976,2.171684504,5.440306187
5,6.335794926,2.156189203,5.255358696
5.010001562,6.149755955,2.071606874,5.141959667
5.020001562,5.968878746,1.976624131,5.01892662
5.030001562,5.669095993,1.872083664,5.045578957
5.040003125,5.348646164,1.864297748,5.212962151
5.050003125,5.036337376,1.968637109,5.337489605
5.060001562,4.776958942,2.0888834,5.349268913
5.070001562,4.47410202,2.075265169,5.351864338
5.080001562,4.226829052,1.972266674,5.467513561
5.090001562,3.962585688,1.81426847,5.566777229
5.100001562,3.638630867,1.754490137,5.684284687
5.110003125,3.296308041,1.907010317,5.769939899
5.120001562,3.049551964,2.078483105,5.867987156
5.130001562,2.800219774,2.248318195,5.950864792
5.140001562,2.671478987,2.358920574,6.027019501
5.150001562,2.514294863,2.401518345,6.047369957
5.160042187,2.315326929,2.526112556,6.029940605
5.170001562,2.167470694,2.722561598,5.972949028
5.180003125,2.051122189,2.792338133,6.085217476
5.190003125,1.928107977,2.679695845,6.33238554
5.200001562,1.712218046,2.484501362,6.625483513
5.210001562,1.379759192,2.407082319,7.003317356
5.220001562,0.969163239,2.451490164,7.362342358
5.230001562,0.622750998,2.457829952,7.663283825
5.240001562,0.401430994,2.435238123,8.038657188
5.250003125,0.223110855,2.342371941,8.36260128
5.260003125,0.062345009,2.144534349,8.47854805
5.270001562,-0.335063726,1.985090017,8.38471508
5.280001562,-0.998238444,2.011684895,8.24937439
5.290001562,-1.614774108,2.071080208,8.22799015
5.300001562,-2.058448315,2.040836573,8.263347626
5.310001562,-2.323486567,1.959931731,8.427685738
5.320003125,-2.374751091,1.828710318,8.696238518
5.330003125,-2.355971098,1.695046902,8.91258812
5.340001562,-2.356976509,1.746464729,9.146951675
5.350001562,-2.599394321,2.005622625,9.53371048
5.360001562,-3.087188959,2.435860634,9.871973991
5.370001562,-3.647623539,2.729935646,10.38456249
5.38,-3.946774244,2.716173887,10.80493641
5.390003125,-4.012116909,2.402677059,11.07844925
5.400001562,-4.095435143,2.093748569,10.93700123
5.410003125,-4.169167042,2.014280081,10.733284
5.420001562,-4.20872879,2.215259075,10.73859787
5.430001562,-4.256373405,2.534415722,10.93618774
5.440001562,-4.197303772,2.77184391,11.34175396
5.450001562,-4.038146496,2.770464659,11.75229263
5.460003125,-3.896927118,2.702440739,12.05107021
5.470003125,-3.743429899,2.659325838,12.23988628
5.480003125,-3.485900164,2.518182993,12.16461372
5.490001562,-3.316055298,2.350311041,11.96860409
5.5,-3.020457745,2.330123186,11.91795349
5.510001562,-2.653167963,2.355156898,11.85827065
5.52,-2.320240021,2.381512403,11.68175125
5.530001562,-2.092340708,2.484683275,11.50637054
5.540003125,-1.996505618,2.549901247,11.34305763
5.550003125,-1.752000093,2.401843786,11.05565643
5.560001562,-1.457743168,1.989964604,10.66612148
5.570001562,-1.350846887,1.832799673,10.35770893
5.580001562,-1.097166777,2.003305197,10.44868851
5.590001562,-0.747709155,2.121511698,10.68475628
5.600001562,-0.335465938,2.116483688,11.01686096
5.610003125,0.204723388,1.964911699,11.19898319
5.620001562,0.736571312,1.846120954,11.14436722
5.630001562,1.4486835,1.928328276,10.8738699
5.640001562,2.151736021,2.213257313,10.57742977
5.650001562,2.903668642,2.588706493,10.316329
5.660001562,3.788125038,2.948325157,10.2657423
5.670001562,4.686199665,3.407293558,10.33829689
5.680003125,5.451759815,3.952108622,10.43950462
5.690003125,6.087697983,4.394413471,10.4125452
5.700001562,6.59702158,4.635145664,10.22685146
5.710001562,6.825744152,4.638076305,9.843808174
5.720001562,6.840770245,4.520855904,9.472401619
5.730001562,6.784641743,4.424982548,9.076657295
5.740001562,6.775887489,4.471707821,8.773418427
5.750003125,6.938406944,4.605716228,8.845885277
5.760003125,7.226035595,4.812718868,8.983226776
5.770001562,7.567994595,4.966340065,8.993560791
5.780001562,7.838779926,4.9081707,8.83357048
5.790001562,7.790837288,4.778155804,8.570361137
5.800001562,7.707328796,4.65824461,8.424515724
5.810001562,7.832668781,4.730367661,8.424821854
5.820003125,7.929193497,4.943413258,8.34251976
5.830003125,8.07464695,5.083081722,8.342604637
5.840001562,8.175278664,5.091097355,8.426756859
5.850001562,8.309528351,5.085791588,8.351051331
5.860001562,8.465121269,5.204841137,8.194308281
5.870001562,8.675638199,5.294393539,7.914502621
5.880001562,8.850358009,5.420453072,7.6019063
5.890003125,8.894583702,5.561892986,7.392451763
5.900001562,8.827766418,5.685223103,7.3302598
5.910003125,8.777066231,5.75485611,7.363070011
5.920001562,8.731136322,5.821606636,7.355341434
5.930001562,8.69433403,5.802242279,7.291550636
5.940001562,8.615103722,5.722342968,7.178534508
5.950001562,8.451991081,5.616375446,7.069359303
5.960003125,8.225768089,5.517025948,7.023524284
5.970003125,8.019234657,5.390343666,6.995780468
5.980003125,7.831242085,5.236655235,6.919213772
5.990001562,7.605009079,5.093644619,6.709156036
6.000001562,7.364574909,4.980830193,6.538995743
6.010001562,7.120182991,4.855335712,6.351309299
6.020001562,6.908459187,4.700603008,6.111898899
6.030001562,6.722324371,4.515760899,5.968485832
6.040003125,6.501962185,4.319446087,5.972949028
6.050003125,6.316487789,4.133062363,6.059446335
6.060001562,6.128236771,3.986403227,6.319954872
6.070001562,6.04246664,3.87764883,6.695480347
6.080001562,6.035207748,3.793669939,6.899983883
6.090001562,6.06671524,3.713397026,6.981989861
6.100001562,6.086548805,3.65191412,7.000444412
6.110003125,6.063985825,3.564784288,6.961083889
6.120001562,5.987668514,3.466708183,6.875840664
6.130001562,5.80449295,3.296825171,6.829670906
6.140001562,5.706090927,3.106342554,7.016552448
6.150001562,5.598256111,2.968647242,7.281054497
6.160001562,5.505907059,2.820905685,7.535242081
6.170001562,5.416258812,2.676315069,7.744715691
6.180003125,5.313030243,2.558213949,8.002858162
6.190001562,5.297802925,2.489960194,8.275156021
6.200001562,5.201153755,2.439145565,8.492835999
6.210001562,5.092840195,2.318851233,8.656953812
6.220001562,4.781766415,2.20439887,8.743280411
6.230001562,4.282269001,2.078186035,8.826338768
6.240001562,3.835242748,1.954990149,8.940963745
6.250003125,3.455694914,1.814278126,9.083362579
6.260003125,3.150060654,1.697077155,9.200514793
6.270001562,2.920715332,1.590180874,9.14218235
6.280001562,2.837253332,1.52902329,8.988389015
6.290001562,2.659584522,1.445226312,8.684977531
6.300001562,2.352484941,1.471725345,8.343122482
6.310003125,1.724792361,1.649394155,8.211500168
6.320003125,0.988977671,1.734809756,8.013057709
6.330003125,0.257395834,1.630700231,7.877412796
6.340001562,-0.36286521,1.478055596,7.935686588
6.350001562,-0.875559509,1.352187634,8.102380753
6.360001562,-1.216436386,1.23396194,8.209861755
6.370001562,-1.388378382,1.095644116,8.414661407
6.380001562,-1.485554218,1.002193689,8.607615471
6.390003125,-1.733133793,1.168715119,8.7835989
6.400003125,-2.08398962,1.744348288,8.901077271
6.410004687,-2.346940041,2.259839058,8.974463463
6.420001562,-2.410328865,2.449555635,8.916372299
6.430007812,-2.363086462,2.455675125,8.691391945
6.440001562,-2.287286043,2.443416834,8.612251282
6.450001562,-2.03540659,2.553578854,8.637302399
6.460001562,-1.748542905,2.795460224,8.6426754
6.470003125,-1.586263895,3.164598227,8.866877556
6.480009375,-1.473286271,3.59082365,9.240019798
6.490001562,-1.42168653,4.058219433,9.476997375
6.5,-1.531120658,4.348272324,9.751717567
6.510001562,-1.657946348,4.370912075,9.934269905
6.520001562,-1.844263077,4.239173412,9.989394188
6.530001562,-2.146200657,3.998584747,9.89716053
6.540003125,-2.3738029,3.664469242,9.716628075
6.550003125,-2.684579849,3.359371424,9.44551754
6.560001562,-3.001801968,3.241499901,9.460860252
6.570003125,-3.13979435,3.313766479,9.700300217
6.580001562,-2.945519209,3.411593676,10.11014843
6.590001562,-2.544327736,3.4807477,10.50386143
6.600001562,-2.068417788,3.427347422,10.73268986
6.610003125,-1.670377016,3.223821163,10.72820663
6.620009375,-1.429079771,2.963207483,10.51965332
6.630001562,-1.293548822,2.738095045,10.28403473
6.640001562,-0.900880575,2.596502066,10.45356464
6.650001562,-0.317202985,2.675041437,11.0305748
6.660001562,0.212346524,2.859605551,11.51142693
6.670004687,0.890441895,2.94883275,12.14144802
6.680001562,1.551404357,2.895585775,12.57540989
6.690001562,2.190799713,2.771039248,12.40612984
6.700001562,2.744291306,2.539328575,11.83536243
6.710001562,2.995481491,2.390179396,11.27351093
6.72000625,3.112998486,2.397898197,10.77447224
6.730001562,3.428506374,2.55280304,10.65576935
6.740001562,3.931805849,2.657956362,10.79081059
6.750003125,4.534368992,2.837071419,11.14063168
6.760003125,5.050951481,2.977381229,11.28088379
6.770004687,5.440468788,3.006303072,11.14076614
6.780001562,5.688508034,2.861415625,10.74919891
6.790001562,5.716108322,2.694223881,10.24610996
6.800001562,5.728672981,2.611595154,9.880535126
6.810001562,6.008564949,2.762860775,9.826674461
6.820007812,6.505696774,3.05279851,9.831741333
6.830003125,7.263346672,3.228073359,9.848136902
6.840001562,7.840139866,3.406546593,9.991539955
6.850001562,8.206614494,3.500753641,9.782143593
6.860001562,8.261930466,3.480805159,9.207687378
6.870003125,8.160703659,3.370643139,8.525157928
6.880001562,7.869932175,3.145722389,7.812710762
6.890003125,7.359555244,2.892990351,7.17765379
6.900003125,6.904025078,2.676592827,6.921004772
6.910003125,6.462764263,2.580997229,7.140447617
6.920004687,6.255263329,2.619160891,7.650632858
6.930001562,6.249967575,2.652401924,8.171965599
6.940001562,6.265367031,2.677569628,8.501992226
6.950001562,6.233323097,2.673384666,8.701486588
6.960001562,6.131522655,2.626822233,8.701563835
6.970004687,5.996345043,2.506221533,8.439703941
6.980003125,5.697213173,2.444115877,8.029309273
6.990001562,5.332336903,2.362933397,7.588891029
7.000001562,4.903698444,2.268592119,7.348034382
7.010001562,4.553752422,2.120850801,7.303789616
7.020001562,4.299919128,1.997884631,7.434130192
7.030001562,4.174817085,1.922237396,7.624516964
7.040003125,4.163143158,1.903399825,7.836930752
7.050003125,4.104973793,1.902614594,8.06870842
7.060001562,3.967489004,1.926757693,8.218125343
7.070001562,3.820140123,1.863933802,8.261757851
7.080001562,3.680069923,1.769908786,8.346302032
7.090001562,3.495333195,1.734177709,8.506579399
7.100001562,3.34848237,1.640593171,8.631020546
7.110003125,3.276426554,1.577108502,8.799313545
7.120003125,3.195215225,1.519475222,8.992688179
7.130001562,3.186624765,1.493771076,9.094011307
7.140001562,3.23035264,1.462770939,9.106432915
7.150001562,3.331205845,1.526073694,9.106451035
7.160001562,3.409477234,1.571228266,9.11548233
7.170001562,3.524647713,1.588437796,9.123497963
7.180003125,3.631783485,1.485123277,9.118117332
7.190003125,3.591848373,1.491108775,9.124331474
7.200001562,3.521229029,1.477729917,9.174618721
7.210001562,3.446635246,1.466812372,9.203168869
7.220001562,3.344603777,1.467367887,9.159257889
7.230001562,3.356258869,1.532432675,9.209460258
7.240001562,3.372999191,1.584702849,9.315962791
7.250003125,3.399517298,1.618777156,9.456043243
7.260003125,3.425326824,1.634636402,9.648240089
7.270001562,3.403999329,1.634598017,9.819244385
7.280001562,3.345896721,1.668078542,9.976944923
7.290001562,3.320163965,1.676870108,10.07333469
7.300001562,3.275047541,1.631763339,10.03283501
7.310001562,3.249783993,1.65030396,9.881866455
7.320003125,3.23459506,1.661518455,9.710622787
7.330003125,3.23035264,1.729331851,9.576825142
7.340003125,3.311247826,1.780711412,9.490768433
7.350001562,3.359438419,1.821556449,9.441706657
7.360001562,3.364485264,1.861577988,9.475464821
7.370001562,3.37936759,1.891400099,9.461137772
7.380001562,3.356737614,1.853111982,9.414632797
7.390003125,3.25281024,1.82046473,9.383881569
7.400001562,3.176195621,1.808924675,9.398438454
7.410003125,3.081433296,1.77158463,9.42858696
7.420001562,3.036805391,1.77038753,9.485798836
7.430001562,3.01329422,1.77884388,9.560879707
7.440001562,3.040760517,1.822868466,9.589571953
7.450003125,3.034822941,1.87614429,9.542741776
7.46,3.067010641,1.918071508,9.478682518
7.470001562,3.073829174,1.957355618,9.451743126
7.480001562,3.037494898,1.933020949,9.459873199
7.490001562,2.978472948,1.907402992,9.473932266
7.500001562,2.925340891,1.896054387,9.467967033
7.510001562,2.871883154,1.918780208,9.480798721
7.52,2.862775564,1.949397206,9.472735405
7.530001562,2.856158018,1.983011842,9.465610504
7.540003125,2.918617964,2.049149275,9.520801544
7.550003125,3.013160229,2.052022219,9.579554558
7.560001562,3.001486063,2.010727167,9.619577408
7.570001562,2.958218098,1.922524691,9.633281708
7.580001562,2.894551516,1.959098577,9.650864601
7.590001562,2.814843655,1.964835048,9.673217773
7.600001562,2.830932617,1.984094024,9.625878334
7.610003125,2.8405478,1.981192231,9.571126938
7.620003125,2.860103607,1.957480073,9.465054512
7.630001562,2.843095303,1.918272614,9.364804268
7.640001562,2.783967972,1.840997338,9.280126572
7.650001562,2.697336197,1.777167916,9.20468998
7.660001562,2.624705791,1.717006445,9.214372635
7.670001562,2.568671942,1.660407543,9.254633904
7.680003125,2.503118515,1.627472878,9.280241013
7.690003125,2.497295856,1.598895669,9.285939217
7.700001562,2.513863802,1.583132267,9.294013977
7.710001562,2.490879536,1.529004216,9.237365723
7.720001562,2.448827744,1.471591234,9.144845009
7.730001562,2.364398479,1.43348515,9.053913116
7.740001562,2.305108547,1.417166233,8.991864204
7.750003125,2.187629938,1.430401325,8.968995094
7.760003125,2.139075518,1.503204226,8.963651657
7.770001562,2.168054819,1.57790339,8.927164078
7.780001562,2.216216564,1.669486403,8.89995575
7.790001562,2.280975103,1.745947599,8.828752518
7.800001562,2.310328007,1.774888635,8.693184853
7.810001562,2.284623861,1.783172607,8.576432228
7.820003125,2.234489202,1.799491525,8.518530846
7.830003125,2.127660036,1.849329233,8.517994881
7.840003125,2.070486307,1.906368613,8.577552795
7.850001562,2.099561691,1.901149273,8.641671181
7.860001562,2.185072899,1.899176478,8.715104103
7.870001562,2.250827312,1.875607967,8.757261276
7.880001562,2.28153038,1.870819569,8.744428635
7.890003125,2.247513771,1.915840149,8.752196312
7.900003125,2.278351068,1.952797055,8.712873459
7.910003125,2.322375536,1.98374927,8.705921173
7.920001562,2.33652997,2.09326005,8.760670662
7.930001562,2.345896244,2.25333643,8.885495186
7.940001562,2.378055096,2.386894464,9.032049179
7.950001562,2.431618214,2.465117931,9.142805099
7.960001562,2.508357048,2.441271544,9.175127983
7.970003125,2.527903318,2.395255089,9.13440609
7.980003125,2.537097216,2.327757835,9.022003174
7.990001562,2.478142262,2.274232864,8.96187973
8,2.453472376,2.225735903,8.939641953
8.010001562,2.511373758,2.180514336,9.012321472
8.020001562,2.585526943,2.175994158,9.118833542
8.030001562,2.695095301,2.176903963,9.21102047
8.040003125,2.772600412,2.16038394,9.310724258
8.050001562,2.787415743,2.17063117,9.336946487
8.060001562,2.837435246,2.146861315,9.301884651
8.070001562,2.863311768,2.160288095,9.290307045
8.080001562,2.921060085,2.205624819,9.240057945
8.090001562,2.959750414,2.214722633,9.167129517
8.100001562,2.983922243,2.208689213,9.107896805
8.110003125,3.023493528,2.165191412,9.063710213
8.120003125,3.012872934,2.183234215,9.038245201
8.130001562,2.966463566,2.162414074,8.974999428
8.140001562,2.894216299,2.102674007,9.013126373
8.150001562,2.838747263,2.058036566,9.029856682
8.160001562,2.803734541,2.029928684,8.986655235
8.170001562,2.763329983,2.005488634,8.978658676
8.180003125,2.809001923,2.003850937,8.879605293
8.190001562,2.835050821,1.998124003,8.817193031
8.200001562,2.944322109,2.016415834,8.868400574
8.210001562,3.007471561,2.041755915,8.931204796
8.220001562,2.886497259,2.039984226,8.915901184
8.230001562,2.820082188,1.983385324,8.848451614
8.240001562,2.787884951,1.87426722,8.77976799
8.250003125,2.700582743,1.774017215,8.805796623
8.260003125,2.560148478,1.752153397,8.877106667
8.270001562,2.390227318,1.800334215,8.893070221
8.280001562,2.344517231,1.878548026,8.890475273
8.290001562,2.440974712,1.939619303,8.869243622
8.300001562,2.603177071,1.927849412,8.746793747
8.310001562,2.501116991,2.045126915,8.880744934
8.320003125,2.807881355,1.491788745,9.237041473
8.330003125,2.822217703,1.343051314,9.03602314
8.340003125,2.478314638,2.067009926,9.224198341
8.350001562,2.169089079,2.56914115,9.202421188
8.360001562,1.936095119,2.654671669,8.975440025
8.370001562,1.898314595,2.569179535,9.002324104
8.380001562,2.02491045,2.449258566,9.116880417
8.390003125,2.359964609,2.50027442,9.44969368
8.400001562,2.114616394,2.408490181,9.789910316
8.410003125,1.945528269,2.414447069,9.384696007
8.420001562,2.037954092,2.608616829,9.36465168
8.430001562,2.11046958,2.75439477,9.445977211
8.440001562,2.222728968,2.758005381,9.379428864
8.450001562,2.160671234,2.706912994,9.237893105
8.460001562,2.077573299,2.737166166,9.222426414
8.470003125,1.986545682,2.925963402,9.155398369
8.480003125,1.87769568,3.100366592,9.086829185
8.490001562,1.755122185,3.146363974,9.119907379
8.5,1.733832955,3.135293245,9.04521656
8.510001562,1.733536005,3.11771965,9.009026527
8.520001562,1.729915977,3.076443672,8.955589294
8.530001562,1.747815013,3.082381248,9.040821075
8.540003125,1.73749125,3.096315622,9.190909386
8.550003125,1.827494025,3.093337297,9.245487213
8.560001562,1.979621649,3.089535236,9.329170227
8.570001562,2.031604528,3.110019922,9.355553627
8.580001562,2.037599564,3.209331512,9.306921959
8.590001562,2.04198575,3.315490484,9.187404633
8.600001562,2.05748105,3.351489544,9.113807678
8.610003125,2.032380342,3.363211632,9.12665844
8.620001562,2.04989624,3.378793001,9.208961487
8.630001562,2.112461567,3.354688168,9.381833076
8.640001562,2.164731741,3.371830702,9.420331001
8.650001562,2.132141829,3.458759308,9.558581352
8.660001562,2.128732443,3.547785282,9.613668442
8.670001562,2.182420015,3.647776842,9.537024498
8.680003125,2.221531868,3.726804733,9.542234421
8.690003125,2.261016846,3.772926569,9.574700356
8.700001562,2.341280222,3.740375042,9.62613678
8.710001562,2.366179943,3.703303099,9.752062798
8.720001562,2.348635197,3.709987879,9.849783897
8.730001562,2.193778276,3.81487298,9.927960396
8.740001562,2.091986418,3.962643147,9.935754776
8.750003125,2.047301054,4.091001034,9.86723423
8.760001562,2.095855236,4.153585434,9.753220558
8.770001562,2.279222488,4.1324687,9.680160522
8.780001562,2.51397872,4.064386845,9.803586006
8.790001562,2.686782598,3.967728376,9.946404457
8.800001562,2.808858156,3.892914295,9.942910194
8.810001562,2.900345325,3.823223829,9.860539436
8.820003125,2.922640085,3.673500061,9.759705544
8.830003125,2.872419357,3.546789408,9.695809364
8.840003125,2.80430913,3.448138714,9.525964737
8.850001562,2.672312021,3.407963991,9.390882492
8.860001562,2.534770012,3.480872154,9.309700012
8.870001562,2.43927002,3.610906124,9.272924423
8.880001562,2.473583698,3.761338711,9.249434471
8.890003125,2.635996819,3.864193439,9.25074482
8.900003125,2.950441599,3.952424526,9.191973686
8.910003125,3.346777916,4.037744522,9.105656624
8.920001562,3.635394096,4.096354485,9.012273788
8.930001562,3.800421476,4.285170555,8.947007179
8.940001562,3.786822557,4.567092896,9.062054634
8.950001562,3.690115929,4.822381496,9.186905861
8.960001562,3.626832247,4.95737648,9.208932877
8.970003125,3.651042461,4.914156437,9.193686485
8.980003125,3.749472857,4.796553135,9.091416359
8.990001562,3.913178921,4.725293159,8.935611725
9,4.044496059,4.77036047,8.778953552
9.010001562,4.101305485,4.948613644,8.624576569
9.020001562,4.088530064,5.117663383,8.451311111
9.030001562,4.055528641,5.200531483,8.369879723
9.040003125,4.008430004,5.121762276,8.41390419
9.050003125,3.863963604,5.021253586,8.498487473
9.060001562,3.682531118,4.988682747,8.502039909
9.070001562,3.416362762,5.001142502,8.454577446
9.080001562,3.237535238,5.029882431,8.340756416
9.090001562,3.113879442,5.099390984,8.270166397
9.100001562,3.120161772,5.225287437,8.178152084
9.110003125,3.175180674,5.350082874,8.098032951
9.120003125,3.210720062,5.418998718,8.092295647
9.130001562,3.193606377,5.403100014,8.151748657
9.140001562,3.207914114,5.343359947,8.155292511
9.150001562,3.171751976,5.247496128,8.040361404
9.160001562,3.160298347,5.177710056,7.914176941
9.170001562,3.106026411,5.117510319,7.952417374
9.180003125,3.004167557,5.125870705,7.977968216
9.190003125,2.919709682,5.22592926,7.902234554
9.200001562,2.933557749,5.226044178,7.800615311
9.210001562,3.124931097,4.930283546,7.707490444
9.220001562,3.233819485,4.539617062,7.52284956
9.230001562,3.151726961,4.266936302,7.323374271
9.240001562,2.841122389,4.130495548,7.226504803
9.250003125,2.501758814,4.114675045,7.217320919
9.260003125,2.181491137,4.094774246,7.184185028
9.270001562,1.955325246,3.983539581,7.295927048
9.280001562,1.787855625,3.824574232,7.510351658
9.290001562,1.673920393,3.665273666,7.559270382
9.300001562,1.625030875,3.451433182,7.615123272
9.310001562,1.557926178,3.149399757,7.508446217
9.320003125,1.424415827,2.901264668,7.464191437
9.330001562,1.262548685,2.719372511,7.442519188
9.340003125,1.046993971,2.517215729,7.483728409
9.350001562,0.693073452,2.365097761,7.548965454
9.360001562,0.395704061,2.222594738,7.584677219
9.370001562,0.279757679,2.054148436,7.779929161
9.380001562,0.179105431,1.702152848,7.912395954
9.390001562,0.088413075,1.171961665,7.988253593
9.400003125,-0.126471311,0.635430694,8.069618225
9.410003125,-0.617598653,0.277468801,8.273796082
9.420001562,-1.31576705,0.114490718,8.517582893
9.430001562,-2.045663357,0.012622231,8.811879158
9.440001562,-2.633372784,-0.128080204,9.164658546
9.450001562,-2.949599028,-0.436702371,9.378145218
9.460001562,-3.116532326,-0.918645561,9.417764664
9.470003125,-3.109522104,-1.379969954,9.371201515
9.480003125,-3.080025434,-1.728038907,9.312630653
9.490001562,-3.08180666,-1.813875914,9.136131287
9.500001562,-3.063629866,-1.690775633,8.956459999
9.510001562,-2.997262716,-1.516468167,8.848279953
9.52,-2.843104839,-1.391806841,8.676156044
9.530001562,-2.527271271,-1.36840117,8.404021263
9.540001562,-2.290906191,-1.415538192,8.287557602
9.550001562,-2.165574551,-1.397332668,8.207304955
9.560001562,-1.95360148,-1.289919257,8.175595284
9.570001562,-1.771431446,-1.114433765,8.385394096
9.580001562,-1.57910049,-0.850477874,8.548037529
9.590001562,-1.2688694,-0.664582491,8.681537628
9.600001562,-0.944244385,-0.586474061,8.895235062
9.610003125,-0.508040011,-0.619159698,8.935466766
9.620001562,0.028500576,-0.678717852,8.879356384
9.630001562,0.388751298,-0.489614218,9.007417679
9.640001562,0.70528388,0.01985272,9.121362686
9.650001562,1.028625607,0.664276004,9.222426414
9.660001562,1.375162363,1.257741094,9.375951767
9.670001562,1.81459415,1.64369607,9.371671677
9.680003125,2.485966444,1.736150503,9.228766441
9.690001562,3.153077364,1.858053684,9.167934418
9.700001562,3.618950605,2.244238377,9.287653923
9.710001562,3.852701426,2.801972389,9.466002464
9.720001562,4.067940235,3.346184015,9.724461555
9.730001562,4.353778839,3.724467993,9.926981926
9.740001562,4.721806049,3.966406822,9.96151638
9.750003125,5.068562984,4.014434338,9.913632393
9.760003125,5.332662582,4.075773716,9.898366928
9.770001562,5.694417,4.213708401,9.800492287
9.780001562,6.181368828,4.399795532,9.724567413
9.790001562,6.64981842,4.714278698,9.821292877
9.800001562,7.083819866,5.114417076,9.801709175
9.810001562,7.33830452,5.425835609,9.859638214
9.820003125,7.502249718,5.544884682,9.991319656
9.830003125,7.645279408,5.525003433,9.94667244
9.840003125,7.788088799,5.39109087,9.902810097
9.850001562,7.877095699,5.242707729,9.90947628
9.860001562,7.837658405,5.249325275,9.903942108
9.870001562,7.78544569,5.337920189,9.786031723
9.880001562,7.775150776,5.363921165,9.557623863
9.890001562,7.808171272,5.239614487,9.407076836
9.900003125,7.898643494,5.199238777,9.400986671
9.910003125,8.052696228,5.218478203,9.321106911
9.920001562,8.219630241,5.243952751,9.328480721
9.930001562,8.393421173,5.204438686,9.345669746
9.940001562,8.496753693,5.042638779,9.245469093
9.950001562,8.479679108,4.800690174,9.073737144
9.960001562,8.379065514,4.503876209,8.849543571
9.970003125,8.164085388,4.22765255,8.573559761
9.980003125,7.816464901,4.087007523,8.339254379
9.990001562,7.563799858,4.110058784,8.144872665
10.00000156,7.390594006,4.102608204,8.116487503
10.01000156,7.314975262,3.922678947,8.127739906
10.02000156,7.320501328,3.602440119,8.077088356
10.03000156,7.350026608,3.172374487,8.118000031
10.04000313,7.247248173,2.816941023,8.141674042
10.05000313,6.989009857,2.564821959,8.101260185
10.06000156,6.658648014,2.436808825,8.008786201
10.07000156,6.446502686,2.339891434,7.959025383
10.08000156,6.238274097,2.21383214,7.927977085
10.09000156,6.058737755,2.019757986,7.915019989
10.10000156,5.862087727,1.841801882,8.012559891
10.11000313,5.655209541,1.664506435,8.136291504
10.12000313,5.406116962,1.474904776,8.264879227
10.13000156,5.197619915,1.364216089,8.374936104
10.14000156,5.053661823,1.262424231,8.453398705
10.15004375,4.850815296,1.105671048,8.443305969
10.16000156,4.670780659,0.934409022,8.337366104
10.17000156,4.44985342,0.796512544,8.2768507
10.18000313,4.192639828,0.672770679,8.216880798
10.19000313,3.926538467,0.555540979,8.256270409
10.20000156,3.58677268,0.404859483,8.533921242
10.21000156,3.211668253,0.207404897,8.839019775
10.22000156,2.929018259,0.006454768,9.243160248
10.23000156,2.529090881,-0.284459889,9.73431778
10.24000156,2.062920809,-0.460864663,10.20320702
10.25000313,1.607888341,-0.462626785,10.61634922
10.26000313,1.226166368,-0.377182513,11.01960182
10.27000313,1.017899632,-0.284967452,11.5418148
10.28000156,0.898697078,-0.171338648,11.90920925
10.29000156,0.941610754,-0.026135104,11.97571182
10.30000156,1.063647985,0.073300876,11.88581371
10.31000156,1.147741914,0.155785903,11.58196926
10.32000313,1.118101716,0.268763483,11.17020512
10.33000156,0.954625666,0.48580265,10.91375828
10.34000313,0.676888704,0.807583332,10.64337635
10.35000156,0.368142009,1.149848819,10.45955849
10.36000156,0.097673848,1.446385026,10.55455208
10.37000156,-0.035798103,1.599872589,10.79361725
10.38000156,-0.047194503,1.610014439,11.05439377
10.39000156,0.023549367,1.544116378,11.21866322
10.40000313,0.036238637,1.480459332,11.38026237
10.41000313,-0.014460978,1.564725637,11.42248726
10.42000156,-0.117880911,1.731496215,11.33598042
10.43000156,-0.259157956,1.884160042,11.25853348
10.44000156,-0.40416038,1.930339456,11.14334297
10.45000156,-0.532221437,1.939552307,10.9917984
10.46000156,-0.616277099,1.913321376,10.90600967
10.47000313,-0.690152526,1.916635036,10.83244991
10.48000313,-0.79081434,1.978960872,10.82835293
10.49000156,-0.907641828,2.087073326,10.89880753
10.50000156,-0.9654091,2.176118612,10.99586868
10.51000156,-0.950881124,2.20293355,11.07957172
10.52000156,-0.878308058,2.239775658,11.15921116
10.53000156,-0.753043413,2.263104677,11.14667511
10.54000313,-0.634281456,2.270066977,11.08762455
10.55000313,-0.481818706,2.289258957,11.02076817
10.56000156,-0.296794802,2.362808943,10.93881989
10.57000156,-0.139141425,2.491856337,10.84468079
10.58000156,0.050441038,2.657918215,10.75914955
10.59000156,0.233635768,2.766892672,10.70946503
10.60000156,0.399956167,2.846897125,10.66169739
10.61000313,0.487928718,2.97395277,10.68114662
10.62000156,0.526513636,3.165172815,10.72979641
10.63000156,0.584769368,3.43433857,10.7411356
10.64000156,0.756060123,3.723232508,10.78898144
10.65000156,1.037024498,3.988615274,10.83507538
10.66000156,1.430190682,4.184288502,10.84295559
10.67000156,1.794128537,4.31875658,10.73717022
10.68000313,2.088758945,4.38476944,10.68472004
10.69000313,2.288100243,4.432471752,10.59281921
10.70000156,2.422050953,4.533411026,10.4971199
10.71000156,2.522712708,4.693401337,10.43216801
10.72000156,2.616374016,4.92394352,10.38792324
10.73000156,2.792242289,5.150205135,10.25053501
10.74000156,3.066301823,5.281896114,10.05527306
10.75000313,3.305836916,5.265500546,9.934529305
10.76000313,3.483237743,5.211410522,9.792313576
10.77000313,3.57516551,5.133924961,9.520053864
10.78000156,3.527137756,5.029231071,9.307592392
10.79000156,3.486896038,4.876806736,9.16600132
10.80000156,3.503914118,4.683326721,9.197507858
10.81000156,3.460569382,4.509622574,9.252076149
10.82000313,3.351192713,4.321763515,9.296809196
10.83000313,3.266093254,4.126243591,9.260005951
10.84000313,3.167758465,3.956226587,9.213108063
10.85000156,3.078857183,3.844149351,9.167111397
10.86000156,2.931546688,3.739982367,9.085928917
10.87000156,2.807172537,3.620071173,9.002791405
10.88000156,2.704068661,3.481868267,8.885562897
10.89000156,2.657343626,3.314676285,8.811630249
10.90000313,2.713396549,3.095329285,8.654071808
10.91000313,2.814958572,2.890126944,8.447500229
10.92000156,2.922554016,2.70341754,8.368109703
10.93000156,2.999551535,2.62647748,8.229484558
10.94000156,3.059799194,2.573249578,7.960758686
10.95000156,3.104417562,2.587222099,7.867480755
10.96000156,3.118801832,2.519399166,7.767048359
10.97000313,3.141058445,2.396413803,7.518119812
10.98000313,3.162424326,2.227191687,7.216267109
10.99000156,3.075620174,2.162442923,6.944295406
11.00000156,2.899263144,2.2194345,6.715794086
11.01000156,2.687845707,2.433523893,6.551206112
11.02000156,2.615416288,2.655092955,6.31968689
11.03000156,2.755802631,2.780146837,6.21360445
11.04000313,3.020984411,2.714545727,5.997246265
11.05000156,3.301326275,2.497276783,5.804214954
11.06000156,3.524044514,2.303107023,5.673636436
11.07000156,3.551367044,2.103009224,5.537510395
11.08000156,3.382336378,2.013475657,5.419390202
11.09000156,3.015592575,1.975829244,5.348694324
11.10000156,2.668213129,1.918856859,5.382356644
11.11000313,2.382220984,1.813626885,5.550209522
11.12000313,2.181941271,1.609257817,5.776202679
11.13000156,2.0733881,1.357387781,5.929498672
11.14000156,2.098833799,1.140310287,6.013745785
11.15000156,2.180878162,0.85676986,6.108307362
11.16000156,2.295225382,0.548138082,6.117424488
11.17000156,2.356555223,0.304437101,6.051967144
11.18000313,2.258555651,0.13090536,6.109035015
11.19000313,2.072976351,0.107901879,6.105913162
11.20000156,1.855860591,0.139840528,6.1770401
11.21000156,1.585066795,0.15618813,6.292277813
11.22000156,1.371168852,0.187054187,6.406452656
11.23000156,1.226769805,0.246190965,6.520981789
11.24000156,1.259800196,0.329844356,6.693354607
11.25000313,1.449497581,0.485429168,6.905385017
11.26000313,1.872667909,0.68959707,7.049630642
11.27000156,2.305060625,0.847556949,7.27617979
11.28000156,2.574954271,0.813932776,7.391015053
11.29000156,2.757804155,0.678650796,7.327291012
11.30000156,2.779179573,0.527030826,7.313500404
11.31000156,2.689588547,0.478792429,7.29124403
11.32000313,2.512436867,0.726965785,7.474773884
11.33000313,2.225707293,1.184401989,7.885322094
11.34000313,2.126367092,1.725548983,8.295286179
11.35000156,2.360251904,2.084602594,8.561415672
11.36000156,2.611269474,2.113007307,8.671884537
11.37000156,2.859806776,1.857373714,8.660910606
11.38000156,2.806588411,1.594337106,8.545087814
11.39000156,2.371092796,1.708406448,8.382157326
11.40000313,1.787127852,2.307205915,8.581824303
11.41000313,1.1987288,3.093547821,8.985909462
11.42000156,0.892338097,3.739024639,9.293735504
11.43000313,1.160210967,3.94295311,9.615305901
11.44000156,1.979832292,3.631745338,9.869875908
11.45000156,2.695114374,3.242476702,10.11966801
11.46000156,3.213152647,3.335563421,10.4546833
11.47000313,3.534186363,3.92386651,10.77120686
11.48000313,3.590181828,4.573844433,10.86392879
11.49000156,3.370327234,4.859865189,10.84210491
11.50000156,3.01027751,4.67338562,10.5793457
11.51000156,2.622483969,4.192419529,10.18375587
11.52000156,2.334480524,3.791093826,9.800376892
11.53000156,1.951054096,3.686227798,9.664558411
11.54000313,1.513748288,4.050960541,9.907657623
11.55000313,1.190454483,4.79148674,10.46338081
11.56000156,1.449813604,5.292363644,11.20259476
11.57000156,2.048881054,5.159178734,12.12422752
11.58000156,2.799482584,4.664498329,12.77335358
11.59000156,3.423775434,4.1457901,13.04469204
11.60000156,3.687865257,3.776211262,12.88294029
11.61000313,3.537605286,3.530834436,12.42711258
11.62000313,3.090435505,3.516555309,11.63967133
11.63000156,2.73226285,3.798477411,10.9838028
11.64000156,2.369340181,4.315375805,10.51333141
11.65000156,2.206132174,4.663119316,10.34931087
11.66000156,2.186844587,4.622542381,10.44970322
11.67000156,2.294870853,4.226417065,10.61453915
11.68000313,2.521975279,3.802451849,10.69020748
11.69000156,2.721555948,3.448186636,10.60016441
11.70000156,2.779983997,3.213162184,10.4620676
11.71000156,2.712343216,3.075064659,10.31860828
11.72000156,2.616306782,3.13068676,10.17337513
11.73000156,2.330994606,3.210001945,10.36747742
11.74000156,1.986239195,3.164052248,10.19230938
11.75000313,1.823318601,3.097847939,10.17782784
11.76000313,1.546424389,3.089046717,10.50247288
11.77000313,1.324165821,2.850804567,10.26220036
11.78000156,1.273044825,2.641158819,10.01138306
11.79000156,1.18619287,2.657889366,10.15587711
11.80000156,0.96812892,2.702459812,9.854035378
11.81000156,0.900325119,2.748160362,9.406588554
11.82000313,0.891907156,2.872917414,9.224504471
11.83000313,0.921030223,2.991526127,9.1920681
11.84000313,0.97584784,3.027276278,9.168307304
11.85000156,1.013705015,2.975350857,9.043138504
11.86000156,0.975301981,2.89872694,9.102342606
11.87000156,0.927858472,2.788842678,9.257429123
11.88000156,0.761327386,2.628593922,9.293946266
11.89000156,0.563336492,2.536082029,9.228555679
11.90000313,0.321244389,2.550303459,9.083487511
11.91000156,0.074095748,2.620530367,8.818160057
11.92000156,-0.197741896,2.778786898,8.602060318
11.93000156,-0.409973502,2.902318239,8.60429287
11.94000156,-0.611967504,2.817975283,8.765756607
11.95000156,-0.613892436,2.646857023,9.045666695
11.96000156,-0.720396101,2.420240879,9.364756584
11.97000313,-0.891638994,2.284374714,9.685713768
11.98000313,-1.069700599,2.263832569,9.82684803
11.99000156,-1.36739552,2.298605919,9.9425354
12.00000156,-1.563825488,2.294468641,9.855271339
12.01000156,-1.7860744,2.269176483,9.67610836
12.02000156,-2.023081303,2.334969044,9.492492676
12.03000156,-2.203939199,2.363996267,9.363359451
12.04000313,-2.179077864,2.379817247,9.347834587
12.05000313,-2.043202162,2.325526237,9.4114151
12.06000156,-1.8464849,2.309283972,9.522927284
12.07000156,-1.628191113,2.355041981,9.650442123
12.08000156,-1.355491638,2.434002876,9.759179115
12.09000156,-1.154886246,2.466717243,9.811275482
12.10000156,-1.034639835,2.497736454,9.815174103
12.11000313,-1.015572429,2.525518656,9.864015579
12.12000313,-1.102290392,2.545112848,9.806716919
12.13000156,-1.224279761,2.524561167,9.676196098
12.14000156,-1.348031282,2.574552059,9.512957573
12.15,-1.442171335,2.599624157,9.407125473
12.16000156,-1.477385163,2.627722502,9.33020401
12.17000156,-1.483207941,2.635814905,9.395049095
12.18000313,-1.401172996,2.61079073,9.476699829
12.19000156,-1.286461949,2.497506618,9.555240631
12.20000156,-1.196918845,2.391874552,9.643587112
12.21000156,-1.236959457,2.34985137,9.608735085
12.22000156,-1.315872312,2.361477613,9.495098114
12.23000156,-1.421284318,2.371504545,9.353819847
12.24000156,-1.477595925,2.3825562,9.195506096
12.25000313,-1.455741644,2.405358553,9.133946419
12.26000313,-1.430296063,2.374722481,9.160723686
12.27000313,-1.355031967,2.361084938,9.199643135
12.28000156,-1.366974235,2.376561165,9.265675545
12.29000156,-1.404084325,2.362713099,9.284044266
12.30000156,-1.436176181,2.349908829,9.291264534
12.31000156,-1.503280878,2.411008835,9.246245384
12.32000156,-1.561622739,2.444451094,9.228402138
12.33000313,-1.565922737,2.419570446,9.219945908
12.34000313,-1.538063884,2.346566677,9.26375103
12.35000156,-1.56039691,2.297887564,9.308340073
12.36000156,-1.611987233,2.278504133,9.350687981
12.37000156,-1.668021083,2.314110756,9.38147831
12.38000156,-1.738898993,2.366246939,9.373309135
12.39000156,-1.816538215,2.393454552,9.319314957
12.40000313,-1.901283383,2.432278872,9.267533302
12.41000313,-1.961981177,2.446682453,9.245659828
12.42000156,-1.958179235,2.399095297,9.19881916
12.43000156,-1.956752181,2.363258839,9.180163383
12.44000156,-1.932407975,2.338091135,9.183996201
12.45000156,-1.996869445,2.323275805,9.249806404
12.46000156,-2.036297083,2.329586983,9.30163765
12.47000313,-2.005134344,2.319531202,9.300189972
12.48000156,-1.991132975,2.307541132,9.214096069
12.49000156,-2.020227194,2.294928312,9.127807617
12.50000156,-1.995768189,2.315135479,9.096328735
12.51000156,-1.948832273,2.311285496,9.122924805
12.52000156,-1.849271774,2.236232281,9.122915268
12.53000156,-1.722024679,2.161082983,9.139060974
12.54000313,-1.64677012,2.108113766,9.170002937
12.55000313,-1.637739182,2.112921238,9.220760345
12.56000156,-1.704776883,2.142456055,9.260216713
12.57000156,-1.767160177,2.182314873,9.291714668
12.58000156,-1.786036134,2.190752029,9.355946541
12.59000156,-1.792270541,2.160699844,9.406733513
12.60000156,-1.809547186,2.141287804,9.383767128
12.61000313,-1.821269155,2.143327475,9.314334869
12.62000313,-1.858542085,2.17063117,9.252372742
12.63000156,-1.878643751,2.1924088,9.208924294
12.64000156,-1.887741804,2.235408545,9.210991859
12.65000156,-1.859978557,2.221158266,9.28630352
12.66000156,-1.858618736,2.226023197,9.364327431
12.67000156,-1.862449408,2.234920263,9.393401146
12.68000313,-1.872227311,2.245722771,9.391908646
12.69000313,-1.909624815,2.253183126,9.351302147
12.70000156,-1.949512124,2.264799833,9.299433708
12.71000156,-1.964509487,2.210240841,9.295536041
12.72000156,-1.937014461,2.166570425,9.304117203
12.73000156,-1.904146791,2.159751892,9.317285538
12.74000156,-1.862947464,2.152396917,9.397011757
12.75000313,-1.842864871,2.127181053,9.410476685
12.76000313,-1.821393609,2.149514198,9.40404129
12.77000313,-1.79754746,2.193031311,9.36536026
12.78000156,-1.801033378,2.157951355,9.30142498
12.79000156,-1.838584065,2.162643909,9.258148193
12.80000156,-1.849836826,2.169309378,9.224887848
12.81000156,-1.832473993,2.111561298,9.278738022
12.82000156,-1.826833248,2.069978714,9.347939491
12.83000313,-1.860524535,2.036479235,9.393028259
12.84000313,-1.883690834,2.064912796,9.40225029
12.85000156,-1.879630208,2.079967499,9.409567833
12.86000156,-1.890796781,2.102003574,9.424123764
12.87000156,-1.917448997,2.125466824,9.390241623
12.88000156,-1.922783256,2.144591808,9.316709518
12.89000156,-1.945288777,2.168533802,9.274380684
12.90000313,-1.909184217,2.137964487,9.246848106
12.91000313,-1.868157148,2.104244709,9.270013809
12.92000156,-1.87679553,2.096420288,9.31187439
12.93000156,-1.873213768,2.090339184,9.372695923
12.94000156,-1.875416398,2.061771393,9.405870438
12.95000156,-1.885529518,2.087715149,9.396695137
12.96000156,-1.918435454,2.111982584,9.348303795
12.97000313,-1.948592782,2.160728693,9.275893211
12.98000313,-1.928337812,2.181203842,9.264363289
12.99000156,-1.910687804,2.145329237,9.221727371
13.00000156,-1.874851346,2.114079952,9.224648476
13.01000938,-1.844990849,2.12719059,9.269869804
13.02000156,-1.844425917,2.118485451,9.350211143
13.03000156,-1.842338085,2.106830359,9.406406403
13.04000313,-1.852815151,2.128483534,9.432781219
13.05000313,-1.842682838,2.132036448,9.377274513
13.06000625,-1.848716259,2.172230482,9.294922829
13.07000156,-1.829371095,2.158918619,9.254968643
13.08000156,-1.834389329,2.156591415,9.222550392
13.09000156,-1.846666813,2.14738822,9.209383011
13.10000156,-1.845373988,2.163161039,9.237587929
13.11000313,-1.831458926,2.153747082,9.236915588
13.12000313,-1.796810031,2.153488636,9.17035675
13.13000156,-1.792347193,2.158219576,9.1060009
13.14000156,-1.802402854,2.168524265,9.067482948
13.15000156,-1.786878824,2.140770674,9.178191185
13.16000625,-1.727962375,2.082754374,9.389972687
13.17000156,-1.727349401,2.081528425,9.686718941
13.18000313,-1.851033926,2.155700922,9.738243103
13.19000313,-2.077075243,2.157788515,9.527217865
13.20000313,-2.065334082,2.296115875,9.422744751
