Time (s),Gyroscope x (rad/s),Gyroscope y (rad/s),Gyroscope z (rad/s)
0.213481562,0.037192967,-2.517969131,0.003752458
0.223481562,0.179856181,-2.143194437,-0.064367741
0.233484687,0.336359859,-1.824863911,-0.175091431
0.243481562,0.466247261,-1.697105765,-0.250681639
0.253481562,0.561001182,-1.522520542,-0.38695696
0.26348,0.640850008,-1.311719656,-0.533878744
0.273483125,0.685792208,-1.134271979,-0.638930142
0.283483125,0.728762209,-0.805504382,-0.778626263
0.293481562,0.732497215,-0.501468003,-0.908950031
0.303481562,0.709528685,-0.356221706,-1.017230272
0.313481562,0.664167583,-0.329622895,-1.097393274
0.323481562,0.56194365,-0.346011519,-1.10706234
0.333481562,0.400361061,-0.370393783,-1.000859022
0.343483125,0.211516455,-0.4098382,-0.764035344
0.353481562,0.055379298,-0.464763731,-0.528572977
0.363481562,-0.056740653,-0.484433591,-0.345836997
0.373481562,-0.106849059,-0.360480309,-0.195738673
0.383481562,-0.067003191,-0.167010561,-0.078243107
0.393481562,0.058835048,0.034924038,-0.013124876
0.403481562,0.208758831,0.176749498,-0.038885936
0.413483125,0.335749,0.215984493,-0.147899196
0.423483125,0.415196389,0.153047919,-0.304594874
0.433483125,0.443662703,0.080546945,-0.486650139
0.443481562,0.408319771,0.055466563,-0.632664382
0.453481562,0.323985457,0.11433652,-0.708184779
0.46352375,0.211533904,0.180711389,-0.700767159
0.473481562,0.106744334,0.310982764,-0.595296919
0.483483125,0.046321038,0.398650646,-0.441044688
0.493483125,-0.006265732,0.408494323,-0.228830114
0.503483125,-0.047979102,0.292447358,0.018308504
0.513481562,-0.118106432,0.210381985,0.195773587
0.523481562,-0.20968385,0.219492599,0.279915899
0.533481562,-0.294332325,0.322362304,0.305519879
0.5434925,-0.363203019,0.496650904,0.298067331
0.553481562,-0.399470955,0.664010525,0.264853716
0.563483125,-0.382052571,0.768363774,0.264207929
0.573483125,-0.32131511,0.816691935,0.329012007
0.583481562,-0.259373367,0.847165346,0.428635418
0.593489375,-0.200957209,0.863519073,0.548382461
0.603481562,-0.151634201,0.832644224,0.680957675
0.613481562,-0.13721779,0.7981565,0.817756593
0.623481562,-0.12299335,0.703193128,0.97347486
0.633483125,-0.054576445,0.576796412,1.198849201
0.643484687,0.053721234,0.313600749,1.509587646
0.653481562,0.152314886,0.294245064,1.744020224
0.663481562,0.290318072,0.240227118,1.878689885
0.673481562,0.40324086,0.297578633,1.920717359
0.683481562,0.469877541,0.375315607,1.89598608
0.693481562,0.500159025,0.425546169,1.930595994
0.703483125,0.475567311,0.466194898,2.032488346
0.713483125,0.418006361,0.532412708,2.172393799
0.723481562,0.394776016,0.628458142,2.329717875
0.733481562,0.405422539,0.743981481,2.458191633
0.743481562,0.418756843,0.844844103,2.541478634
0.753481562,0.401879519,0.919858336,2.592581987
0.76348,0.342817575,0.93162185,2.637314558
0.773481562,0.262165904,0.876853406,2.716413021
0.783483125,0.196332082,0.738239348,2.83853364
0.793481562,0.172909766,0.49300316,2.99999404
0.803481562,0.19716984,0.235601991,3.174701452
0.813481562,0.299603224,0.12596041,3.274953365
0.823481562,0.43486625,0.065519661,3.306561232
0.833481562,0.558784604,-0.012095132,3.334102392
0.843483125,0.658826888,-0.103428215,3.409640312
0.853483125,0.739687979,-0.190764487,3.551448345
0.863481562,0.810007274,-0.286408544,3.743888378
0.873481562,0.883188963,-0.377549618,3.935839653
0.883481562,0.970979035,-0.429438263,4.074436188
0.893481562,1.07428503,-0.421758801,4.114631176
0.903481562,1.169649839,-0.393571734,4.031675816
0.913483125,1.251854897,-0.326481283,3.812270403
0.923483125,1.281106591,-0.139364541,3.514656782
0.933483125,1.234925151,0.119066358,3.213849306
0.943481562,1.116975784,0.361544967,2.936219692
0.953481562,0.929544926,0.542832315,2.70040822
0.963481562,0.69767791,0.687938988,2.520377636
0.973481562,0.482775509,0.824074686,2.398920059
0.983483125,0.31710887,0.947591603,2.338671446
0.993483125,0.212162226,1.041577578,2.318198681
1.003483125,0.16235052,1.070550084,2.291634798
1.013481562,0.147585034,0.989688933,2.230460882
1.023481562,0.124023095,0.802519858,2.143473864
1.033481562,0.108280227,0.700836957,2.003585577
1.043481562,0.124075457,0.662910938,1.814217448
1.053481562,0.15838863,0.637830555,1.601636291
1.063483125,0.201550618,0.603534877,1.408777356
1.073483125,0.249337733,0.584563136,1.256706834
1.083481562,0.296793252,0.584545672,1.134533882
1.093481562,0.319639593,0.581648409,1.035399079
1.103481562,0.314298898,0.545869172,0.941605151
1.113481562,0.284506112,0.476405084,0.843971431
1.123481562,0.237521857,0.378457189,0.748484433
1.133483125,0.182229832,0.241832823,0.645370424
1.143483125,0.134634703,0.090477869,0.527962089
1.153481562,0.115296453,-0.020071287,0.384199321
1.163481562,0.123935826,-0.01441642,0.205948845
1.173481562,0.130271375,0.092170835,0.005864306
1.183481562,0.09721484,0.222040787,-0.183678448
1.193481562,0.015655603,0.308940738,-0.338105172
1.203483125,-0.105313167,0.322955728,-0.453872859
1.213483125,-0.241937533,0.271154344,-0.535205185
1.223481562,-0.360619932,0.151983276,-0.603691936
1.233481562,-0.435669094,-0.000401426,-0.676507056
1.243481562,-0.459353209,-0.132871911,-0.762481987
1.253481562,-0.45169121,-0.233175993,-0.867411196
1.26348,-0.435023308,-0.325189739,-1.004629016
1.273483125,-0.423504144,-0.40901792,-1.161987901
1.283483125,-0.416383207,-0.475096077,-1.305802941
1.293481562,-0.410326898,-0.512149394,-1.409615159
1.303481562,-0.419664413,-0.535868466,-1.468275666
1.313481562,-0.452878028,-0.589676917,-1.489795566
1.323481562,-0.510089934,-0.666000187,-1.504264355
1.333481562,-0.565748453,-0.737017632,-1.541160583
1.343483125,-0.606850982,-0.782134414,-1.603015065
1.353483125,-0.628545403,-0.800757051,-1.688623548
1.363481562,-0.645719469,-0.802013695,-1.773481369
1.373481562,-0.672964036,-0.800809443,-1.84057188
1.383481562,-0.718185544,-0.767962337,-1.886142373
1.393481562,-0.790232718,-0.723561168,-1.910856247
1.403481562,-0.896034598,-0.695496261,-1.90658021
1.413483125,-1.015467405,-0.695234478,-1.886264563
1.423483125,-1.122613192,-0.721990347,-1.86765933
1.433481562,-1.189982891,-0.784281135,-1.850991488
1.443481562,-1.203631401,-0.871111274,-1.838652015
1.453481562,-1.177887797,-0.969739854,-1.828773379
1.463481562,-1.123590589,-1.046708822,-1.820971847
1.473481562,-1.042432785,-1.057302952,-1.81488061
1.483483125,-0.954572916,-1.003477097,-1.814479232
1.493483125,-0.889123082,-0.932267606,-1.817167044
1.503483125,-0.860726595,-0.874811351,-1.806433201
1.513481562,-0.8583529,-0.848369658,-1.768280268
1.523481562,-0.861267626,-0.846955895,-1.708939075
1.533481562,-0.853727818,-0.869872093,-1.628287435
1.543481562,-0.824860036,-0.909368873,-1.545628667
1.553481562,-0.786131203,-0.950820446,-1.481889248
1.563483125,-0.746739089,-1.006409168,-1.435062051
1.573483125,-0.705444634,-1.082627773,-1.393505812
1.583481562,-0.652421534,-1.164256811,-1.3455441
1.593481562,-0.58140409,-1.202741265,-1.285609484
1.603481562,-0.510055006,-1.194346309,-1.208378673
1.613481562,-0.45704937,-1.159020782,-1.117586732
1.623481562,-0.445111305,-1.101163149,-1.028801799
1.633483125,-0.480122626,-1.031489611,-0.948865712
1.643481562,-0.553112268,-0.961676419,-0.901183307
1.653481562,-0.660188258,-0.933541715,-0.894551039
1.663481562,-0.786951482,-0.966318965,-0.915390253
1.673481562,-0.879907727,-1.017945886,-0.947853386
1.683481562,-0.913365722,-1.034543872,-0.953944623
1.693481562,-0.890030622,-0.984348238,-0.905756056
1.703483125,-0.840218961,-0.855054259,-0.802188218
1.713483125,-0.788679361,-0.707015395,-0.647010982
1.723489375,-0.736703455,-0.567511261,-0.481222183
1.733481562,-0.688514948,-0.455042243,-0.359293491
1.743481562,-0.65318948,-0.376502424,-0.30503118
1.753481562,-0.633554518,-0.312047422,-0.311035126
1.76348,-0.638703227,-0.261712134,-0.341211855
1.773483125,-0.6591236,-0.234746784,-0.350514472
1.783483125,-0.679840624,-0.238569051,-0.304472685
1.793481562,-0.660292983,-0.240750715,-0.177866504
1.803481562,-0.568994761,-0.170291781,-0.005427974
1.813481562,-0.44690901,-0.018360864,0.149312913
1.823481562,-0.343585521,0.160640106,0.245777264
1.833481562,-0.291278005,0.360497743,0.274418116
1.843483125,-0.303879261,0.569954693,0.250070781
1.853481562,-0.373325914,0.733230293,0.219335526
1.863481562,-0.478726357,0.818454683,0.229685321
1.873481562,-0.571630239,0.807127535,0.299673021
1.883481562,-0.614251196,0.772919059,0.412473649
1.893481562,-0.604075909,0.800791979,0.546130955
1.903481562,-0.56148988,0.896889806,0.676053286
1.913483125,-0.516722202,0.979269326,0.784438252
1.923483125,-0.479546666,0.990299821,0.887482464
1.933481562,-0.416418105,0.950244486,0.987873793
1.943481562,-0.290684581,0.866800308,1.054353356
1.953481562,-0.101124376,0.772866726,1.064249396
1.963481562,0.105662234,0.717539787,1.026934266
1.973481562,0.255708188,0.745342851,0.95265305
1.983481562,0.283720732,0.888547122,0.86515969
1.993483125,0.18216002,1.099679589,0.795747936
2.003483125,0.000226893,1.291980028,0.793287039
2.013481562,-0.177116007,1.380572915,0.872350454
2.023481562,-0.253910512,1.400399804,1.008329034
2.033481562,-0.207467288,1.433456421,1.133504033
2.043481562,-0.073757611,1.492169261,1.209268808
2.053481562,0.083758354,1.572052956,1.210961819
2.063483125,0.20195204,1.689059854,1.145634174
2.073483125,0.239528984,1.793343306,1.054231167
2.083481562,0.180275053,1.819802403,0.991347015
2.093481562,0.040264744,1.747196794,0.99759531
2.103481562,-0.113481306,1.579400778,1.09135437
2.113481562,-0.205111086,1.39106226,1.258015871
2.123481562,-0.202231303,1.204294682,1.472534299
2.133483125,-0.121457465,1.001626968,1.681921482
2.143481562,0.015707964,0.754610538,1.842648864
2.153481562,0.208130509,0.466317058,1.941190124
2.163481562,0.46933648,0.222616747,1.979936361
2.173481562,0.782919765,0.104649939,1.951958776
2.183481562,1.084809422,0.152157798,1.856384516
2.193481562,1.307687879,0.318121165,1.714559078
2.203483125,1.395460486,0.504068553,1.558212519
2.213483125,1.335124493,0.692773521,1.423228741
2.223481562,1.152283788,0.883154035,1.325315714
2.233481562,0.898774743,1.08009696,1.261105061
2.243481562,0.61871922,1.273758769,1.22015965
2.253481562,0.364424735,1.417504072,1.192478776
2.26348,0.176033914,1.488800764,1.175967932
2.273483125,0.084997535,1.490511179,1.162040234
2.283483125,0.083426736,1.431012869,1.146995425
2.293481562,0.167534158,1.323762417,1.127325654
2.303481562,0.324683607,1.211101413,1.101285338
2.313481562,0.533128262,1.111338377,1.069520354
2.323481562,0.751119912,1.0340029,1.034543872
2.333481562,0.937224329,0.989147902,0.991608799
2.343483125,1.051613212,0.905790985,0.941814542
2.353483125,1.078194618,0.741433322,0.90886277
2.363481562,1.028522491,0.502410471,0.884724855
2.373481562,0.937363982,0.196890593,0.86585784
2.383481562,0.843116224,-0.093828902,0.842453003
2.393481562,0.759916365,-0.262829125,0.809256792
2.403481562,0.678165138,-0.295239896,0.763598979
2.413483125,0.601405561,-0.236719012,0.711937249
2.423483125,0.515238643,-0.139678702,0.66127032
2.433483125,0.416575193,-0.035447638,0.616083741
2.443481562,0.321489662,0.055379298,0.569954693
2.453481562,0.23883085,0.108053334,0.513039529
2.463481562,0.159924522,0.116134211,0.441812634
2.473481562,0.080477133,0.089064151,0.352242351
2.483481562,0.014137167,0.030421089,0.251327425
2.493483125,-0.033370696,-0.035901424,0.145089224
2.503483125,-0.073408552,-0.097406827,0.035831608
2.513481562,-0.112887897,-0.156119704,-0.065414943
2.523481562,-0.146171331,-0.224082828,-0.168092653
2.533481562,-0.197571278,-0.300528228,-0.275430411
2.543481562,-0.282115012,-0.370777756,-0.374198586
2.553481562,-0.381755859,-0.422561675,-0.45964992
2.563483125,-0.496947587,-0.449387372,-0.551855683
2.573483125,-0.618614495,-0.45601964,-0.664202511
2.583481562,-0.718813837,-0.446996272,-0.784368396
2.593481562,-0.77288413,-0.409558952,-0.894812822
2.603481562,-0.77379173,-0.381336987,-0.976860762
2.613481562,-0.775432348,-0.454728067,-1.038994551
2.623481562,-0.793287039,-0.577965796,-1.087898612
2.633483125,-0.813497961,-0.713857114,-1.103554249
2.643481562,-0.822381675,-0.843814313,-1.101686716
2.653481562,-0.813201249,-0.940435767,-1.099295616
2.663481562,-0.779970169,-0.99726367,-1.099958897
2.673481562,-0.728866935,-1.009236693,-1.120658398
2.683481562,-0.703001142,-0.988589406,-1.176177382
2.693481562,-0.718464792,-0.969320953,-1.242569685
2.703483125,-0.75309211,-0.96233964,-1.301177859
2.713483125,-0.789901137,-0.967593074,-1.341041207
2.723481562,-0.807912886,-0.99384284,-1.355003834
2.733481562,-0.774158239,-1.029953718,-1.345980406
2.743481562,-0.669665396,-1.076850653,-1.324303508
2.753481562,-0.4943645,-1.111879468,-1.293952227
2.76348,-0.275954008,-1.106713295,-1.261628747
2.773483125,-0.079517201,-1.057425141,-1.241016388
2.783483125,0.022043508,-1.01115644,-1.248067498
2.793481562,0.00832522,-1.002429843,-1.285766602
2.803481562,-0.081018187,-1.00464642,-1.345823407
2.813481562,-0.190328151,-0.996949494,-1.415706396
2.823481562,-0.314281434,-0.976424456,-1.491872549
2.833481562,-0.417500198,-0.960629225,-1.560725808
2.843483125,-0.46558404,-0.932826102,-1.612213016
2.853483125,-0.462477356,-0.888896167,-1.659389257
2.863483125,-0.436908275,-0.834843338,-1.694871783
2.873481562,-0.403048873,-0.789115727,-1.716688395
2.883481562,-0.390168339,-0.769777477,-1.743618846
2.893481562,-0.422614038,-0.773529947,-1.778001785
2.903481562,-0.47820276,-0.786951482,-1.823781848
2.913483125,-0.518013716,-0.795817792,-1.882075787
2.923483125,-0.541052043,-0.802624583,-1.941696286
2.933483125,-0.54215163,-0.793217242,-1.998785973
2.943481562,-0.535903335,-0.771208644,-2.036554813
2.953481562,-0.526146948,-0.754401088,-2.046224117
2.963481562,-0.493282408,-0.725498438,-2.018595457
2.973481562,-0.433784127,-0.664743543,-1.966270447
2.983481562,-0.372051835,-0.590985954,-1.905131578
2.993526875,-0.34143877,-0.526304007,-1.847186685
3.003481562,-0.347756863,-0.482932597,-1.795036197
3.013481562,-0.389033884,-0.458759785,-1.760478735
3.023481562,-0.455024779,-0.439962596,-1.746079683
3.033481562,-0.524070024,-0.43202135,-1.742641449
3.043481562,-0.567511261,-0.439212114,-1.741402268
3.053481562,-0.575679421,-0.462634414,-1.739255548
3.063483125,-0.569884896,-0.498867452,-1.735119104
3.073483125,-0.556184053,-0.558679879,-1.72145319
3.083481562,-0.536234975,-0.652997494,-1.686337113
3.093481562,-0.515849531,-0.775502145,-1.619630575
3.103481562,-0.483700544,-0.893905282,-1.530688643
3.113481562,-0.424062639,-0.971223354,-1.440263152
3.123481562,-0.339449078,-0.982358575,-1.368948936
3.133483125,-0.254119933,-0.926350951,-1.323221326
3.143483125,-0.190363064,-0.835785806,-1.296395659
3.153481562,-0.146904364,-0.732409954,-1.274456859
3.163481562,-0.123743847,-0.619487166,-1.242936254
3.173481562,-0.119781949,-0.532726824,-1.193037271
3.183481562,-0.130637899,-0.468812883,-1.127988815
3.193481562,-0.151110604,-0.400535613,-1.065698028
3.203483125,-0.175807014,-0.324788332,-1.014507532
3.213483125,-0.185982287,-0.240995064,-0.984836936
3.223481562,-0.169174761,-0.170815378,-0.972096026
3.233481562,-0.124162726,-0.129032195,-0.958377719
3.243481562,-0.03939208,-0.128665671,-0.935845554
3.253481562,0.083199844,-0.147829384,-0.900816798
3.26348,0.217171311,-0.180187792,-0.858335495
3.273483125,0.321908534,-0.213610843,-0.82046181
3.283481562,0.378247768,-0.262672037,-0.784752369
3.293481562,0.392419815,-0.274522841,-0.745761752
3.303481562,0.371266425,-0.243770137,-0.71532321
3.313481562,0.318417877,-0.185353965,-0.700156271
3.323481562,0.260315865,-0.119537599,-0.697573185
3.333481562,0.229755148,-0.06075491,-0.689021051
3.343483125,0.220016211,0.004852016,-0.681411445
3.353483125,0.207118228,0.073478363,-0.675407529
3.363483125,0.164863795,0.119380519,-0.666122377
3.373481562,0.100530967,0.132156327,-0.637324452
3.383481562,0.053040557,0.11747811,-0.59575069
3.393481562,0.054558992,0.078103483,-0.552850485
3.403481562,0.120131008,0.034644786,-0.515011728
3.413483125,0.23460716,0.006370452,-0.488290757
3.423483125,0.356134444,0.006475172,-0.469737917
3.433483125,0.437047899,0.004782202,-0.436297417
3.443481562,0.462198079,-0.008342674,-0.375210881
3.453481562,0.435180396,-0.015114551,-0.299603224
3.463481562,0.373709887,0.002321288,-0.225339457
3.473481562,0.29888764,0.029722957,-0.156922549
3.483481562,0.247435331,0.038170349,-0.088802353
3.493483125,0.232984006,0.045919612,-0.032620203
3.503483125,0.223419592,0.076009087,-0.001972222
3.513481562,0.197571278,0.109519407,-0.001256637
3.523481562,0.152821034,0.151250228,-0.025010569
3.533481562,0.098593652,0.221883714,-0.05544911
3.543481562,0.05466371,0.2966187,-0.0604233
3.553481562,0.045727625,0.338873118,-0.028989919
3.563483125,0.08915142,0.338506609,0.030682888
3.573483125,0.181653872,0.326010048,0.101595618
3.583481562,0.276407778,0.314543247,0.150185585
3.593481562,0.312344134,0.297561169,0.166312426
3.603481562,0.257156819,0.273772359,0.16166985
3.613481562,0.140359372,0.243543237,0.145752445
3.623481562,0.012130038,0.232093886,0.118280962
3.633483125,-0.085468777,0.26305601,0.08339183
3.643483125,-0.123429686,0.310284644,0.055326939
3.653481562,-0.088941976,0.362766683,0.046355944
3.663481562,-0.010663962,0.40538761,0.075764745
3.673481562,0.07202974,0.417447835,0.148736954
3.683481562,0.137915924,0.40493384,0.250664175
3.693481562,0.182369456,0.380062908,0.365262508
3.703483125,0.20867157,0.352207452,0.478132933
3.713483125,0.240471467,0.337668836,0.58981657
3.723481562,0.276529968,0.344545454,0.706142783
3.733481562,0.311611086,0.385159254,0.823044896
3.743481562,0.362976134,0.459684819,0.968762457
3.753481562,0.445495278,0.523860574,1.146576643
3.76348,0.553600967,0.59971261,1.32777667
3.773481562,0.665895462,0.68163836,1.509692311
3.783483125,0.766461313,0.731746733,1.692253828
3.793481562,0.855769813,0.7484321,1.865303159
3.803481562,0.9285326,0.760387599,2.024634361
3.813481562,0.982498169,0.766705692,2.170823097
3.823481562,1.021122336,0.747943401,2.30446291
3.833481562,1.04958868,0.724363983,2.407035828
3.843483125,1.048995256,0.721990347,2.466795921
3.853483125,1.020720959,0.720367193,2.492330074
3.863483125,0.969320953,0.75115478,2.482765675
3.873481562,0.880396426,0.782047153,2.463043451
3.883481562,0.758624792,0.787998676,2.47627306
3.893481562,0.646033645,0.786392987,2.530133963
3.903481562,0.563828588,0.786201,2.602792025
3.913483125,0.542081833,0.747315049,2.665641308
3.923483125,0.596832812,0.721239865,2.674071312
3.933483125,0.685373366,0.757839441,2.603402853
3.943481562,0.733404815,0.815801799,2.471508503
3.953481562,0.691935778,0.826500654,2.334901571
3.963481562,0.558662415,0.765745759,2.252399683
3.973481562,0.37091738,0.660799086,2.235138416
3.983481562,0.183818072,0.525850236,2.283955336
3.993483125,0.064385198,0.372243822,2.358358622
4.003483125,0.036582101,0.242722943,2.394085646
4.013481562,0.073426001,0.191898957,2.345984221
4.023481562,0.135786623,0.267000467,2.220215797
4.033481562,0.191462621,0.48628363,2.054915667
4.043481562,0.208689019,0.831754088,1.90555048
4.053481562,0.165527031,1.267423153,1.828721046
4.063483125,0.052342422,1.610502601,1.892547727
4.073481562,-0.095329881,1.71143496,2.104291201
4.083481562,-0.211254656,1.571913362,2.396127701
4.093481562,-0.271520883,1.329487085,2.672430754
4.103481562,-0.270351499,1.149508715,2.844101191
4.113481562,-0.217433125,1.094478488,2.912431002
4.123481562,-0.164287835,1.114026189,2.88607645
4.133483125,-0.139556527,1.080201745,2.834554434
4.143483125,-0.129939765,0.98646009,2.781583548
4.153481562,-0.113830373,0.882141769,2.725750446
4.163481562,-0.084526293,0.804701507,2.66499567
4.173481562,-0.014172073,0.731258035,2.588218451
4.183481562,0.068242371,0.649663925,2.504966259
4.193481562,0.131039321,0.532115996,2.444769859
4.203483125,0.198845357,0.416243583,2.41150403
4.213483125,0.287281185,0.368770629,2.356264353
4.223481562,0.396224648,0.398947358,2.262051344
4.233481562,0.519759059,0.475549847,2.114204645
4.243481562,0.628458142,0.520684063,1.923666954
4.253481562,0.709476352,0.481693417,1.717124701
4.26348,0.763459384,0.389784366,1.49105227
4.273483125,0.821945369,0.300109357,1.224348426
4.283483125,0.889384866,0.290335506,0.897937
4.293481562,0.977017879,0.398301601,0.517071247
4.303481562,1.061753631,0.578960598,0.109781213
4.313481562,1.116556883,0.712268889,-0.266703755
4.323481562,1.132683754,0.7556054,-0.575277984
4.333481562,1.147379398,0.718325138,-0.809117198
4.343483125,1.163680792,0.66947341,-0.979112267
4.353483125,1.16507709,0.626660466,-1.088684082
4.363483125,1.141166091,0.554037333,-1.145668983
4.373481562,1.095839858,0.470802575,-1.184258223
4.383481562,1.052276492,0.43041566,-1.225029111
4.393481562,1.036917567,0.41301471,-1.276080012
4.403481562,1.060165286,0.374006599,-1.322104335
4.413483125,1.117639065,0.307561934,-1.35861659
4.423483125,1.189930558,0.194220245,-1.398183227
4.433483125,1.236967206,0.046722464,-1.451311111
4.443481562,1.2197932,-0.122679196,-1.508173943
4.453481562,1.132195115,-0.29410544,-1.5498873
4.463481562,0.995116949,-0.402438015,-1.583083391
4.473481562,0.845158219,-0.45259878,-1.612579465
4.48348,0.723456442,-0.480401874,-1.628723741
4.493483125,0.664761007,-0.503562391,-1.62109673
4.503483125,0.684395969,-0.512952268,-1.596749425
4.513481562,0.770388305,-0.468865246,-1.612753987
4.523481562,0.898233712,-0.394060433,-1.708223581
4.533481562,0.996495724,-0.324683607,-1.90975666
4.543481562,0.975848496,-0.330809712,-2.19396615
4.553481562,0.773669541,-0.426279217,-2.492714167
4.563483125,0.441777736,-0.607531667,-2.739102364
4.573481562,0.093113318,-0.780371606,-2.90792799
4.583481562,-0.179699093,-0.880396426,-2.974163294
4.593481562,-0.329919577,-0.977157474,-2.923182249
4.603481562,-0.334405094,-1.124253869,-2.768371344
4.613481562,-0.188041776,-1.293830037,-2.569299221
4.623481562,0.033423055,-1.382597446,-2.426059961
4.633483125,0.253980309,-1.323919535,-2.365898609
4.643483125,0.319639593,-1.194590569,-2.393265247
4.653481562,0.214466065,-1.09316957,-2.445328474
4.663483125,0.007243116,-0.983266115,-2.483725786
4.673481562,-0.217956722,-0.836850464,-2.480339766
4.683481562,-0.395212352,-0.686472893,-2.432011604
4.693481562,-0.509548903,-0.608072698,-2.335145712
4.703483125,-0.562938511,-0.619836211,-2.1883986
4.713483125,-0.581910253,-0.686752141,-2.025332451
4.723481562,-0.625735462,-0.757839441,-1.885688663
4.733481562,-0.710157037,-0.793636143,-1.782295346
4.743481562,-0.796673,-0.778085232,-1.720563054
4.753481562,-0.858771801,-0.709563613,-1.678622723
4.76348,-0.888250411,-0.640675485,-1.640085936
4.773481562,-0.905651331,-0.615054011,-1.598634362
4.783483125,-0.925565541,-0.644968987,-1.553116083
4.793481562,-0.9342224,-0.705828607,-1.481330752
4.803481562,-0.908548594,-0.759986162,-1.385110736
4.813481562,-0.870378256,-0.796620607,-1.300898552
4.823481562,-0.845786572,-0.865997493,-1.247282147
4.833481562,-0.835855603,-0.972427666,-1.214260459
4.843483125,-0.824284077,-1.083500385,-1.183821917
4.853483125,-0.789848745,-1.173664093,-1.131043196
4.863483125,-0.713944376,-1.212515116,-1.04323566
4.873481562,-0.605123103,-1.217611551,-0.93319267
4.883481562,-0.531103671,-1.201903582,-0.841126502
4.893481562,-0.525047421,-1.196213722,-0.749618888
4.903481562,-0.585348547,-1.15155077,-0.654638112
4.913481562,-0.66877526,-1.062189937,-0.548085749
4.923483125,-0.745307922,-0.985151112,-0.445983976
4.933483125,-0.817285299,-0.971956432,-0.373413205
4.943481562,-0.901724339,-1.009829998,-0.320180655
4.953481562,-1.010545611,-1.105072618,-0.306689262
4.963481562,-1.143330336,-1.243232965,-0.334719241
4.973481562,-1.284789205,-1.338475585,-0.423312157
4.983481562,-1.397764325,-1.400940895,-0.611720443
4.993483125,-1.425916553,-1.452323318,-0.868179142
5.003483125,-1.347114921,-1.493809819,-1.123782635
5.013481562,-1.218239784,-1.498539686,-1.282904267
5.023481562,-1.08554244,-1.458379626,-1.261192322
5.033481562,-0.980595767,-1.376122355,-1.036201954
5.043481562,-0.910049558,-1.254036546,-0.683924735
5.053481562,-0.877219915,-1.098457813,-0.33962363
5.063483125,-0.870203733,-0.901602209,-0.089430667
5.073483125,-0.870116413,-0.659245789,0.023335053
5.083481562,-0.874217987,-0.426820278,-0.024556782
5.093481562,-0.875893474,-0.233856663,-0.187343642
5.103481562,-0.865491331,-0.10791371,-0.38947022
5.113481562,-0.842802048,-0.06815511,-0.567371607
5.123481562,-0.828106344,-0.087249011,-0.66935122
5.133483125,-0.853553295,-0.1979727,-0.641548097
5.143481562,-0.921987653,-0.378788799,-0.519863784
5.153481562,-1.006112456,-0.646033645,-0.33348006
5.163481562,-1.019638777,-0.877411902,-0.165108144
5.173481562,-0.911812365,-1.010528207,-0.093636915
5.183481562,-0.701081276,-1.009184241,-0.144548163
5.193481562,-0.473734707,-0.923593342,-0.319569796
5.203483125,-0.310598791,-0.824860036,-0.560931385
5.213483125,-0.238045454,-0.791576624,-0.787859082
5.223481562,-0.222948357,-0.817023516,-0.949685991
5.233481562,-0.242373869,-0.853623092,-1.026864409
5.243481562,-0.286548167,-0.910067022,-1.039622784
5.253481562,-0.351422042,-0.9815557,-1.034997702
5.26348,-0.446804285,-1.042450309,-1.049117446
5.273483125,-0.520108104,-1.083727241,-1.091319442
5.283483125,-0.519706666,-1.125353336,-1.193752885
5.293481562,-0.423643768,-1.174885869,-1.346346974
5.303481562,-0.206210643,-1.20148468,-1.513043404
5.313481562,0.104126342,-1.183141232,-1.640906215
5.323481562,0.431218505,-1.152615428,-1.697734118
5.333481562,0.706195116,-1.121670723,-1.677313805
5.343483125,0.894079804,-1.084687233,-1.612282753
5.353483125,0.969931841,-1.039291263,-1.55660677
5.363483125,0.929143488,-1.016776443,-1.5331496
5.373481562,0.83819437,-0.971397877,-1.517912865
5.383481562,0.76504761,-0.853134394,-1.481138706
5.393481562,0.746966004,-0.684343576,-1.406997204
5.403481562,0.783233941,-0.502619922,-1.298141003
5.413481562,0.860866189,-0.311663449,-1.142405272
5.423483125,0.979967475,-0.129346356,-0.93446672
5.433483125,1.130833745,0.055309486,-0.697485924
5.443481562,1.276516318,0.237364784,-0.46979028
5.453522187,1.377815247,0.387550354,-0.283197135
5.463481562,1.414205432,0.518223166,-0.155543745
5.473481562,1.38001442,0.647150636,-0.090844385
5.483481562,1.288943052,0.764628768,-0.07566002
5.493483125,1.172110796,0.849294662,-0.083444193
5.503483125,1.055662394,0.904691398,-0.093444929
5.513481562,0.958761692,0.923209369,-0.10183996
5.523481562,0.887761712,0.890606582,-0.110653877
5.533481562,0.837356627,0.831073403,-0.123691484
5.543481562,0.80883795,0.744784355,-0.127025068
5.553481562,0.804736435,0.636015415,-0.104876831
5.563483125,0.828228533,0.534332573,-0.050719269
5.573483125,0.882316291,0.458044201,0.031276301
5.583481562,0.978169799,0.407691449,0.130410999
5.593481562,1.087828755,0.415667623,0.210905582
5.603481562,1.128494978,0.484503388,0.250681639
5.613481562,1.056395411,0.583411217,0.250891089
5.623481562,0.906890512,0.694257081,0.239179924
5.633483125,0.744697094,0.828769565,0.238185078
5.643483125,0.586866975,0.926350951,0.268571258
5.653481562,0.444483012,0.960297585,0.321088225
5.663481562,0.355994821,0.962758541,0.392699093
5.673481562,0.356221706,0.957906485,0.465776026
5.683481562,0.420153111,0.961571693,0.502602458
5.693481562,0.49164179,0.962060392,0.491781414
5.703483125,0.519357622,0.924343824,0.431462854
5.713483125,0.479023069,0.861599207,0.342189252
5.723481562,0.380918115,0.805486917,0.259094119
5.733481562,0.24870941,0.762883425,0.200608149
5.743481562,0.100565873,0.720646441,0.183329388
5.753481562,-0.023527037,0.699562848,0.220120922
5.76348,-0.107547186,0.681777954,0.305101007
5.773483125,-0.179402396,0.647237897,0.426314116
5.783483125,-0.25270623,0.599101722,0.569518387
5.793483125,-0.28672269,0.537805736,0.723351717
5.803481562,-0.285204262,0.494294703,0.850464046
5.813481562,-0.275151163,0.462931126,0.940086663
5.823481562,-0.253125101,0.427884907,1.018486857
5.833481562,-0.224047914,0.375402868,1.106713295
5.843483125,-0.20401153,0.319028735,1.214976072
5.853483125,-0.177517444,0.25542894,1.363241792
5.863483125,-0.112573735,0.199194431,1.541090846
5.873481562,-0.006422812,0.175545216,1.71555388
5.883481562,0.134774327,0.185493588,1.877590299
5.893481562,0.292778969,0.216822252,2.020078897
5.903481562,0.440521091,0.265743822,2.121046305
5.913481562,0.555241585,0.307352483,2.1847682
5.923483125,0.624792993,0.356466055,2.224858522
5.933483125,0.651444137,0.406120658,2.258194208
5.943481562,0.618631959,0.455059707,2.289400816
5.953481562,0.536723673,0.508309662,2.328653097
5.963481562,0.428757578,0.550633907,2.399199486
5.973481562,0.320512265,0.565748453,2.512418985
5.983481562,0.249686807,0.585941911,2.641782761
5.993483125,0.215879768,0.649628997,2.749521971
6.003483125,0.20160298,0.724084735,2.819631815
6.013481562,0.180467039,0.822905302,2.845968723
6.023481562,0.113969997,0.930888832,2.84055829
6.033481562,-0.027157323,0.959390044,2.846823931
6.043481562,-0.215565622,0.893434048,2.915624857
6.053481562,-0.397777975,0.780476332,3.04683876
6.063483125,-0.528590441,0.655039549,3.213360548
6.073487812,-0.586989105,0.564352214,3.403688669
6.083481562,-0.567266941,0.542640328,3.583108664
6.093481562,-0.507367194,0.590357602,3.705264091
6.103481562,-0.441899925,0.623204708,3.753033876
6.113481562,-0.373203754,0.55023247,3.728826046
6.123489375,-0.268833071,0.380865753,3.628609419
6.133483125,-0.110741138,0.246510297,3.463466167
6.143483125,0.076759577,0.26021114,3.243432522
6.153481562,0.251833558,0.40571925,3.001303196
6.163481562,0.361370414,0.647185564,2.785876989
6.17348625,0.372383446,0.881548345,2.653912783
6.183481562,0.298905075,1.030983448,2.627366304
6.193481562,0.189542755,1.095822453,2.669184446
6.203483125,0.098104954,1.104583979,2.707651377
6.213483125,0.061645027,1.113048792,2.679097891
6.223481562,0.090565138,1.117132902,2.564307451
6.233481562,0.169262037,1.162965178,2.382775784
6.243481562,0.276913941,1.25281477,2.173772573
6.253481562,0.375786841,1.333344221,1.985800743
6.263481562,0.45738098,1.335421205,1.877921939
6.273483125,0.527386129,1.272763848,1.873576045
6.283483125,0.587687254,1.191623569,1.951958776
6.293483125,0.653555989,1.124410868,2.061565399
6.303481562,0.741171539,1.113153577,2.113960266
6.313481562,0.842470407,1.165129423,2.066801548
6.323481562,0.93558377,1.239061594,1.937193274
6.333481562,1.007142186,1.276690841,1.750268579
6.343483125,1.04402101,1.237578034,1.542172909
6.353483125,1.047092795,1.104182601,1.367011666
6.363483125,1.027213573,0.930085957,1.250144482
6.373481562,1.013250947,0.838264167,1.188464522
6.383481562,1.025241256,0.844041228,1.15711844
6.393481562,1.062643766,0.943612278,1.137849927
6.403481562,1.114759207,1.05300951,1.105770826
6.413481562,1.19171083,1.063865423,1.042746902
6.423483125,1.302766085,0.921411693,0.963561356
6.433483125,1.431257248,0.691551805,0.864060163
6.443481562,1.552365661,0.450469464,0.70427525
6.453481562,1.639405251,0.18910642,0.461971194
6.463481562,1.640749097,-0.040788345,0.164026037
6.473481562,1.509256005,-0.218427956,-0.175737202
6.483481562,1.253635049,-0.338803321,-0.524925232
6.493483125,0.934012949,-0.364494562,-0.83398813
6.503483125,0.632891297,-0.308626562,-1.06554091
6.513481562,0.415144026,-0.235811427,-1.213457584
6.523481562,0.294768661,-0.184795454,-1.294859767
6.533481562,0.248726875,-0.174061686,-1.326136112
6.543481562,0.249808982,-0.211568817,-1.323465705
6.553481562,0.272725135,-0.277385175,-1.319119811
6.563483125,0.291155815,-0.359625101,-1.337166548
6.573481562,0.299830109,-0.44703117,-1.378565788
6.583481562,0.310057729,-0.521137834,-1.433316708
6.593481562,0.318278253,-0.582067311,-1.494089127
6.603481562,0.330478102,-0.63067472,-1.534615636
6.613481562,0.348350257,-0.643712342,-1.56126678
6.623481562,0.352835774,-0.616502643,-1.583729267
6.633483125,0.327493578,-0.564125299,-1.602735877
6.643481562,0.26305601,-0.503562391,-1.625320435
6.653481562,0.141109869,-0.454239398,-1.648603082
6.663481562,-0.017261306,-0.452214807,-1.663804889
6.673481562,-0.161303326,-0.483142048,-1.663002014
6.683481562,-0.249739155,-0.497628272,-1.659214735
6.693481562,-0.27670449,-0.496738166,-1.663281322
6.703483125,-0.24349089,-0.477906048,-1.669773936
6.713483125,-0.159540549,-0.389627308,-1.690613151
6.723481562,-0.088924527,-0.269321769,-1.718381405
6.733481562,-0.074124135,-0.185964838,-1.746376395
6.743481562,-0.10990338,-0.150150672,-1.770706296
6.753481562,-0.186209172,-0.15508996,-1.795402765
6.76348,-0.297124863,-0.196192458,-1.818563223
6.773483125,-0.431358129,-0.26429522,-1.833450913
6.783483125,-0.568261743,-0.327353954,-1.845301747
6.793483125,-0.692459404,-0.343236446,-1.845860243
6.803481562,-0.769306242,-0.292778969,-1.834969401
6.813481562,-0.790634155,-0.212057501,-1.819750071
6.823481562,-0.780982494,-0.150848806,-1.789363861
6.833481562,-0.75070101,-0.139242366,-1.729516506
6.843483125,-0.717801571,-0.160919353,-1.636787176
6.853483125,-0.685111523,-0.189630017,-1.515731215
6.863483125,-0.64205426,-0.250297666,-1.375755787
6.873481562,-0.57229346,-0.335452288,-1.234052539
6.883481562,-0.476876318,-0.413119435,-1.113834262
6.893481562,-0.362330347,-0.477277726,-1.018783569
6.903481562,-0.250297666,-0.519549608,-0.949336946
6.913481562,-0.170396492,-0.541174233,-0.900502622
6.923481562,-0.137270153,-0.546130955,-0.867236674
6.933483125,-0.142767936,-0.54318136,-0.835000396
6.943481562,-0.169209674,-0.511748016,-0.786043942
6.953481562,-0.196960405,-0.483543456,-0.721047878
6.963481562,-0.229231536,-0.497314125,-0.645091116
6.973481562,-0.272096843,-0.592626572,-0.573602438
6.983481562,-0.304891557,-0.741188943,-0.515762269
6.993483125,-0.299882472,-0.866381466,-0.469196856
7.003483125,-0.249529719,-0.941465497,-0.438479066
7.013481562,-0.175091431,-0.971729517,-0.422718734
7.023481562,-0.102625363,-0.959843814,-0.416836977
7.033481562,-0.051766466,-0.913749695,-0.408948094
7.043481562,-0.04675737,-0.849259734,-0.390203267
7.053481562,-0.101002201,-0.814038992,-0.353865504
7.063483125,-0.20104447,-0.817459881,-0.307352483
7.073481562,-0.332537591,-0.876835942,-0.275151163
7.083481562,-0.476090908,-0.988484681,-0.266075432
7.093481562,-0.598281384,-1.094496012,-0.283982515
7.103481562,-0.689439952,-1.15769434,-0.306828886
7.113481562,-0.748048127,-1.163471341,-0.323863298
7.123481562,-0.788051069,-1.118616462,-0.327109605
7.133483125,-0.809728026,-1.049169779,-0.31822589
7.143483125,-0.811019599,-0.981363714,-0.306549639
7.153481562,-0.814248443,-0.938323915,-0.296374351
7.163481562,-0.825313866,-0.911044419,-0.279043227
7.173481562,-0.835384369,-0.870884359,-0.28057912
7.183481562,-0.844756782,-0.79770273,-0.312047422
7.193481562,-0.843866706,-0.664987922,-0.369625837
7.203483125,-0.85299474,-0.508536577,-0.449823707
7.213483125,-0.889646649,-0.410414159,-0.509740889
7.223481562,-0.943769336,-0.34259069,-0.531313121
7.233481562,-0.973980963,-0.29628709,-0.516338229
7.243481562,-0.968710065,-0.249791518,-0.503981292
7.253481562,-0.934239864,-0.171653137,-0.537910461
7.26348,-0.895039737,-0.090617493,-0.628370881
7.273483125,-0.872123599,-0.041905355,-0.754610538
7.283483125,-0.882263958,-0.039566614,-0.897134125
7.293487812,-0.923506081,-0.074298665,-1.025904536
7.303481562,-0.975761235,-0.146415666,-1.111181259
7.313481562,-1.019743562,-0.252374619,-1.152510762
7.323481562,-1.027876735,-0.32824406,-1.175915599
7.33348,-0.989619136,-0.366519153,-1.20581305
7.343483125,-0.936194599,-0.388196141,-1.271856308
7.353481562,-0.910904765,-0.39755109,-1.383574843
7.363483125,-0.922074914,-0.393344849,-1.513968349
7.373481562,-0.95891881,-0.407010794,-1.632842779
7.383481562,-1.006845593,-0.454902619,-1.711766601
7.393481562,-1.027841806,-0.511329114,-1.746987343
7.403481562,-0.997577846,-0.568034828,-1.747196794
7.413481562,-0.927590132,-0.642281175,-1.720231414
7.423483125,-0.834529161,-0.711954713,-1.676807642
7.433481562,-0.72818625,-0.751975119,-1.613661647
7.443481562,-0.617951274,-0.75070101,-1.528978229
7.453481562,-0.514226377,-0.732706666,-1.434782863
7.463481562,-0.417901635,-0.708045185,-1.34166944
7.473481562,-0.320512265,-0.687816799,-1.258539438
7.483481562,-0.209177703,-0.682964802,-1.176282048
7.493483125,-0.08471828,-0.692005575,-1.10533452
7.503483125,0.029146999,-0.717312872,-1.067391038
7.513481562,0.123324968,-0.757438004,-1.06723392
7.523481562,0.180065617,-0.808192134,-1.096258759
7.533481562,0.201149195,-0.844512463,-1.134533882
7.543481562,0.215652883,-0.852279186,-1.15633297
7.553481562,0.245550364,-0.831370115,-1.147082686
7.563483125,0.305659503,-0.777299821,-1.100971103
7.573483125,0.404165894,-0.695653319,-1.022815347
7.583481562,0.531819284,-0.572345793,-0.928794384
7.593481562,0.66353929,-0.418111086,-0.836257041
7.603481562,0.765867949,-0.259652644,-0.75251615
7.613481562,0.816883922,-0.124127813,-0.67891562
7.623481562,0.823097289,-0.023265239,-0.609085023
7.633483125,0.797388554,0.037960909,-0.54511869
7.643483125,0.770632684,0.058259089,-0.489529938
7.653481562,0.770719945,0.0482409,-0.444587708
7.663481562,0.792868197,0.03811799,-0.416051596
7.673481562,0.820130229,0.034941491,-0.408494323
7.683481562,0.834162652,0.02872812,-0.417657286
7.693481562,0.812607825,0.029880038,-0.443488151
7.703483125,0.749374568,0.016318828,-0.463699073
7.713483125,0.678200066,-0.007993608,-0.470645487
7.723481562,0.634392262,-0.00731293,-0.468394011
7.733481562,0.630290747,0.041050144,-0.468690723
7.743481562,0.654323936,0.137374863,-0.459108859
7.753481562,0.692372084,0.221848801,-0.425860345
7.76348,0.719424725,0.277559698,-0.376572251
7.773481562,0.70905745,0.305938751,-0.317457944
7.783483125,0.652718246,0.298329115,-0.267785877
7.793483125,0.559482753,0.285151899,-0.252653867
7.803481562,0.450626552,0.278118223,-0.276948839
7.813481562,0.343847305,0.286635429,-0.333200812
7.823481562,0.243700325,0.292482287,-0.381808221
7.833481562,0.180728838,0.295047909,-0.39515999
7.843481562,0.177342907,0.310110092,-0.362295449
7.853483125,0.237940729,0.319447607,-0.296461612
7.863483125,0.314159274,0.333445162,-0.246824458
7.873481562,0.327877551,0.359712362,-0.249494821
7.883481562,0.273911983,0.369084775,-0.284017414
7.893481562,0.200747773,0.372784883,-0.32927382
7.903481562,0.164200574,0.405021101,-0.35772267
7.913481562,0.182735965,0.437658757,-0.339466542
7.923483125,0.26602307,0.434534609,-0.263073474
7.933483125,0.409157544,0.410344362,-0.150744081
7.943481562,0.573480308,0.401024312,-0.031031953
7.953481562,0.70439744,0.397690713,0.056932639
7.963481562,0.725760281,0.411286831,0.083374381
7.973481562,0.60461694,0.442720205,0.05597271
7.983481562,0.400989383,0.48310715,0.013910274
7.993483125,0.214797676,0.529934347,-0.011885692
8.003483125,0.079290308,0.546253145,-0.007714355
8.013481562,0.042184606,0.511643291,0.03827507
8.023481562,0.115209185,0.449335009,0.122626834
8.033481562,0.277542263,0.394723654,0.230453268
8.043481562,0.469580829,0.373343378,0.333235711
8.053481562,0.599014461,0.377113283,0.391041011
8.063483125,0.606048107,0.385665417,0.402333289
8.073483125,0.507506847,0.386695147,0.37763688
8.083481562,0.358996779,0.398388863,0.344754875
8.093481562,0.213541031,0.429036826,0.330233753
8.103481562,0.095434606,0.460086256,0.361527503
8.113481562,0.021938788,0.460574925,0.434499711
8.123481562,-0.003089233,0.438705951,0.523075163
8.133483125,-0.005096362,0.414917111,0.592294931
8.143483125,-0.005393067,0.394688755,0.638563633
8.153481562,-0.010105456,0.386415899,0.662980795
8.163481562,-0.013334315,0.344109118,0.681551099
8.173481562,0.000959931,0.285500944,0.711500943
8.183481562,0.064105943,0.21298252,0.758589923
8.193481562,0.176958933,0.136153132,0.816395223
8.203483125,0.307300121,0.0832173,0.888232946
8.213483125,0.404235721,0.054436818,0.970769584
8.223481562,0.446018875,0.03148574,1.051927447
8.233481562,0.444099039,0.058241636,1.117639065
8.243481562,0.410675973,0.154932871,1.160835981
8.253481562,0.360637397,0.303687274,1.17794013
8.26348,0.29843384,0.494888097,1.173821211
8.273483125,0.224536613,0.655161679,1.167834759
8.283483125,0.144827425,0.729146183,1.176543951
8.293481562,0.059009582,0.70122093,1.202496886
8.303481562,-0.017540559,0.588141024,1.265241504
8.313481562,-0.053249996,0.473054051,1.359506726
8.323481562,-0.02963569,0.391494811,1.477333903
8.333481562,0.053075463,0.338803321,1.609403014
8.343481562,0.180362329,0.317649931,1.732693076
8.353483125,0.319936305,0.319587231,1.8351264
8.363483125,0.425284386,0.311698347,1.924469829
8.373481562,0.489983737,0.271538317,2.002346516
8.383481562,0.51098007,0.18931587,2.069122791
8.393481562,0.497680634,0.090024084,2.132582903
8.403481562,0.471710145,0.021345377,2.182097912
8.413481562,0.445861816,-0.001518436,2.219413042
8.423483125,0.433208168,0.023736477,2.248752117
8.433483125,0.436245054,0.076253437,2.273692846
8.443481562,0.448776513,0.142872646,2.292210817
8.453481562,0.474188507,0.21469295,2.295264959
8.463481562,0.518624604,0.303425491,2.293764114
8.473481562,0.572799623,0.415911973,2.275316
8.483481562,0.610481262,0.527560651,2.233183622
8.493483125,0.622663677,0.625491083,2.175221205
8.503483125,0.602016389,0.719180346,2.104378462
8.513481562,0.543757319,0.78826052,2.040272474
8.523481562,0.462494791,0.810461104,1.998716116
8.533481562,0.391931146,0.784630239,1.993515015
8.543481562,0.351142794,0.756949306,2.020480394
8.553481562,0.351526767,0.722636104,2.071147203
8.563483125,0.405073464,0.682702959,2.126596451
8.573483125,0.508414388,0.650903106,2.158501148
8.583481562,0.624740601,0.601667345,2.155516624
8.593481562,0.717661917,0.525431395,2.119300842
8.603481562,0.769149125,0.43610543,2.060971975
8.613481562,0.795625806,0.373116493,1.992624998
8.623481562,0.827774763,0.351788551,1.94934082
8.633483125,0.882106841,0.416540265,1.900750756
8.643483125,0.946718931,0.591457188,1.830169678
8.653481562,1.037580729,0.815295637,1.741559386
8.663481562,1.117115378,1.048209786,1.622754812
8.673481562,1.108371377,1.234209538,1.479026914
8.683481562,1.000213265,1.347847939,1.29615128
8.693481562,0.841685057,1.382632375,1.063062549
8.703483125,0.689823925,1.35065794,0.807371855
8.713483125,0.611319005,1.30526197,0.549499452
8.723483125,0.648703992,1.283113718,0.31208232
8.733481562,0.788976073,1.297844291,0.092397727
8.743481562,0.97235781,1.380695105,-0.116169117
8.753481562,1.133381963,1.489987612,-0.299533397
8.76348,1.239201188,1.571581721,-0.441742837
8.773481562,1.285487294,1.6248492,-0.546288073
8.783483125,1.292695522,1.658568978,-0.647552073
8.793483125,1.27046001,1.642005801,-0.747559428
8.803481562,1.227943897,1.567968845,-0.843535066
8.813481562,1.176962733,1.474436641,-0.936055005
8.823481562,1.149194598,1.355544925,-1.015589595
8.833481562,1.172791481,1.234209538,-1.094007254
8.843481562,1.239707351,1.12969923,-1.165618181
8.853483125,1.32744503,1.064738154,-1.204713464
8.863483125,1.409929276,1.038593054,-1.193700433
8.873481562,1.450909615,1.014088631,-1.13617444
8.883481562,1.437488079,0.941151321,-1.041647434
8.893481562,1.391533613,0.8305673,-0.936683297
8.903481562,1.362194538,0.722531378,-0.851092339
8.913481562,1.373766065,0.617637098,-0.80508548
8.923483125,1.422076821,0.532238126,-0.799832046
8.933483125,1.497701883,0.508780956,-0.849381924
8.943481562,1.537757277,0.57377696,-0.997874558
8.953481562,1.485310078,0.575871408,-1.222149372
8.963481562,1.336660385,0.440573454,-1.396717191
8.973481562,1.130222917,0.369154602,-1.515033007
8.983481562,0.939214051,0.4537507,-1.667033792
8.993483125,0.784525514,0.637010276,-1.837220788
9.003483125,0.671934307,0.806778431,-1.976847172
9.013481562,0.607653856,0.907344341,-2.049924135
9.023481562,0.597984731,0.9413957,-2.072770357
9.033481562,0.611074686,0.88997829,-2.07484746
9.043481562,0.626904786,0.767700493,-2.07327652
9.053481562,0.657099009,0.692808449,-2.088460922
9.063483125,0.686106384,0.740874827,-2.106333256
9.073483125,0.67252773,0.813637614,-2.106280804
9.083481562,0.591823697,0.799936771,-2.08132267
9.093481562,0.433312893,0.703001142,-2.018961906
9.103481562,0.237713844,0.542971909,-1.915708303
9.113481562,0.040037852,0.31892401,-1.792365909
9.123481562,-0.133796945,0.029059732,-1.655375004
9.133483125,-0.260979086,-0.295309722,-1.526604533
9.143483125,-0.315939486,-0.592870891,-1.416753531
9.153481562,-0.3066369,-0.852785349,-1.343100667
9.163481562,-0.252043009,-1.110553026,-1.298524976
9.173481562,-0.170361593,-1.3551085,-1.243215442
9.183481562,-0.065589473,-1.546867847,-1.151498437
9.193481562,0.02422517,-1.687192321,-1.019167542
9.203483125,0.063093655,-1.856541634,-0.874671757
9.213483125,0.053791046,-2.039033175,-0.746599495
9.223483125,0.003298672,-2.172184467,-0.67095691
9.233481562,-0.086236715,-2.250218153,-0.668914914
9.243481562,-0.206088483,-2.28282094,-0.729896665
9.253481562,-0.326638371,-2.263046265,-0.804369867
9.26348,-0.433208168,-2.17541337,-0.820566535
9.273483125,-0.53930676,-2.087501049,-0.755081773
9.283483125,-0.619330108,-2.028805733,-0.635823429
9.293484687,-0.664080322,-1.967474699,-0.467224628
9.303481562,-0.675477326,-1.943266988,-0.318836749
9.313481562,-0.676995754,-1.984177589,-0.227468759
9.323481562,-0.677048147,-2.098129988,-0.215687782
9.333481562,-0.696491063,-2.191697121,-0.26145032
9.343481562,-0.753929853,-2.200842619,-0.326376557
9.353483125,-0.846100688,-2.184593678,-0.373727351
9.363483125,-0.945462286,-2.152601719,-0.367374361
9.373481562,-1.049222112,-2.084080219,-0.297037572
9.383481562,-1.156071186,-2.019206285,-0.172578156
9.393481562,-1.245676398,-2.042820692,-0.037402406
9.403481562,-1.291229486,-2.135096073,0.054192472
9.413481562,-1.270198226,-2.18204546,0.088086769
9.423483125,-1.179685473,-2.11933589,0.047385689
9.433483125,-1.024560571,-1.987388968,-0.074368477
9.443481562,-0.834197581,-1.854970813,-0.260193676
9.453481562,-0.6777637,-1.680682302,-0.454745531
9.463481562,-0.651967764,-1.532835364,-0.602627277
9.473481562,-0.778539002,-1.497562289,-0.639785349
9.483481562,-0.988816261,-1.492972136,-0.527979553
9.493483125,-1.163192153,-1.462411404,-0.32552135
9.503483125,-1.241382837,-1.374167562,-0.102956973
9.513481562,-1.186160684,-1.169318199,0.07384488
9.523481562,-1.017788768,-0.887569726,0.12981759
9.533481562,-0.835558951,-0.671114028,0.029007372
9.543489375,-0.730228305,-0.570460856,-0.158091918
9.553481562,-0.689160705,-0.492113024,-0.365384668
9.563483125,-0.716213286,-0.433365256,-0.491903603
9.573483125,-0.785520315,-0.400204003,-0.498204231
9.583481562,-0.843535066,-0.350758821,-0.387323469
9.593481562,-0.848020554,-0.302203745,-0.212773085
9.603481562,-0.769794941,-0.223437056,-0.072047189
9.613481562,-0.626573205,-0.080773838,-0.029880038
9.623481562,-0.46979028,0.070685834,-0.113132238
9.633483125,-0.357042015,0.172543243,-0.280072987
9.643483125,-0.316183835,0.237539306,-0.462110817
9.653481562,-0.340566099,0.27216664,-0.610079825
9.663481562,-0.422474384,0.234991133,-0.696840167
9.673481562,-0.529201269,0.137654111,-0.695758045
9.683481562,-0.614355922,0.00726057,-0.601719737
9.693481562,-0.613064349,-0.10182251,-0.470209152
9.703483125,-0.525029957,-0.159348562,-0.378108114
9.713483125,-0.398545921,-0.192876339,-0.3477045
9.723481562,-0.278554559,-0.204901651,-0.392507106
9.733481562,-0.18158406,-0.249774069,-0.501956701
9.743481562,-0.138875842,-0.232093886,-0.647447348
9.753481562,-0.185615763,-0.171286613,-0.753720462
9.76348,-0.280998021,-0.134006381,-0.725742817
9.773481562,-0.334352732,-0.099309236,-0.582346559
9.783483125,-0.305851489,-0.060178954,-0.392018408
9.793483125,-0.196035385,-0.014957472,-0.227538571
9.803481562,-0.049794242,0.035412729,-0.13369222
9.813481562,0.107774079,0.096132733,-0.118368231
9.823481562,0.205355436,0.154775798,-0.196314633
9.833481562,0.219073728,0.231674999,-0.346378028
9.843481562,0.166382238,0.264940977,-0.514139116
9.853483125,0.095225163,0.2607871,-0.625944853
9.863483125,0.051033426,0.285605669,-0.667169571
9.873481562,0.06112143,0.41107741,-0.62816143
9.883481562,0.137723938,0.57365483,-0.458218753
9.893481562,0.190747038,0.805940688,-0.300545692
9.903481562,0.213942453,1.040216208,-0.193714097
9.913481562,0.21287781,1.145913363,-0.161390603
9.923481562,0.176435336,1.179807663,-0.19615756
9.933483125,0.101368725,1.197383165,-0.261048883
9.943481562,-0.002338741,1.230265141,-0.283807993
9.953481562,-0.094719015,1.319922686,-0.229074463
9.963481562,-0.140324473,1.437086701,-0.141214594
9.973481562,-0.137165427,1.56671226,-0.091315627
9.983481562,-0.093252942,1.671868324,-0.096202545
9.993483125,-0.019373154,1.673386812,-0.133884206
10.00348313,0.062482785,1.583257914,-0.191619694
10.01348156,0.139294729,1.473406911,-0.22743386
10.02348156,0.200677961,1.422984362,-0.200014725
10.03348156,0.245794713,1.381009221,-0.130568087
10.04348156,0.266284883,1.257876277,-0.071837753
10.05348156,0.274592638,1.127500176,-0.009354965
10.06348313,0.263579637,0.995099485,0.027872909
10.07348313,0.251013249,0.863501668,0.036180675
10.08348156,0.241466299,0.746913671,0.018675024
10.09348156,0.243037105,0.654777706,-0.006527531
10.10348156,0.266843379,0.612034619,-0.014782939
10.11348156,0.304333061,0.598979533,-0.001937315
10.12348156,0.338174999,0.617741823,0.016039576
10.13348313,0.353813142,0.648826122,0.025237462
10.14348313,0.32267648,0.672056496,0.007784168
10.15348156,0.248831585,0.68868947,-0.040421825
10.16348156,0.154601261,0.695723116,-0.099867739
10.17348156,0.053197637,0.697992086,-0.14892894
10.18348156,-0.039653879,0.711483479,-0.179472208
10.19348156,-0.104719758,0.747925937,-0.180467039
10.20348313,-0.127409041,0.807302058,-0.158598065
10.21348313,-0.107878804,0.885946572,-0.128491133
10.22348313,-0.063931413,0.956597507,-0.099291779
10.23348156,-0.007225663,0.977244735,-0.092170835
10.24348156,0.038013272,0.936683297,-0.111474179
10.25348156,0.057194438,0.838909984,-0.135385185
10.26348,0.053197637,0.704083264,-0.153309718
10.27348313,0.042114794,0.552257061,-0.150115773
10.28348156,0.043615777,0.411286831,-0.114057265
10.29348313,0.059725165,0.308364779,-0.063931413
10.30348156,0.087074474,0.266860843,-0.018901916
10.31348156,0.116884701,0.24893631,0.006352998
10.32348156,0.026720991,0.289061427,0.024068091
10.33348156,-0.335958421,0.268885434,0.096586518
10.34348156,-0.49015826,0.016807521,0.125262275
10.35348313,-0.419961125,-0.092135929,0.079796456
10.36348313,-0.217502937,-0.210539073,0.03354523
10.37348156,0.061906829,-0.278013498,-0.022567106
10.38348156,0.27340582,-0.302675009,-0.041416664
10.39348156,0.335434824,-0.407796174,-0.001099557
10.40348156,0.27262044,-0.60985297,0.04420919
10.41348156,0.11196287,-0.832975864,0.077352993
