Time (s),Acceleration x (m/s^2),Acceleration y (m/s^2),Acceleration z (m/s^2)
0,-2.786649466,5.61921978,6.215203762
0.01,-2.501567125,5.225488663,5.993845463
0.02,-2.491540194,5.666586876,7.010002136
0.029998437,-2.349937677,5.758265495,7.608044624
0.04,-2.2911551,5.813571453,7.979213238
0.050003125,-2.268055916,5.822985649,8.201385498
0.06,-2.291624546,5.757949352,8.217684746
0.07,-2.317826509,5.747405529,8.11756134
0.08,-2.402447224,5.860000134,8.020689964
0.09,-2.363191843,5.967451572,7.918927193
0.1,-2.311342955,5.985197544,7.944180965
0.11,-2.267749548,6.020181656,7.965298176
0.12,-2.274893761,6.150521755,8.1004076
0.130001562,-2.201755762,6.221926689,8.197621346
0.140001562,-1.967545271,6.234711647,8.334282875
0.15,-1.693811417,6.167559147,8.462496758
0.16,-1.713127851,5.905835629,8.341225624
0.169998437,-1.600993037,6.019760132,8.07467556
0.180001562,-1.595218182,6.446387768,8.205562592
0.19,-1.44414413,6.445506573,8.203982353
0.2,-1.281692743,6.199440479,8.382377625
0.210001562,-1.266293168,6.266593933,8.732189178
0.220001562,-1.174872994,6.424447536,8.916046143
0.230001562,-0.737940788,6.415368557,8.900607109
0.240001562,-0.187772438,6.404230595,8.811887741
0.250004687,0.174470261,6.589953899,8.806898117
0.260003125,0.412195325,6.811455727,8.705891609
0.270003125,0.640075445,6.857050896,8.486419678
0.280001562,0.779877663,6.8047328,8.31368351
0.290001562,0.844961643,6.818590164,8.511320114
0.300009375,0.897126496,7.105741501,8.615113258
0.310001562,0.947376013,7.552834511,9.023036957
0.320001562,1.113591075,7.883694172,9.161307335
0.330003125,1.316753387,7.900280952,9.016880035
0.340003125,1.725548983,7.6722188,8.740541458
0.350001562,1.918780208,7.542338371,8.766924858
0.360001562,1.705849528,7.659740448,8.670218468
0.370001562,1.295205593,7.640146255,8.564079285
0.380001562,0.790737748,7.599081039,8.044775963
0.390001562,-0.713002801,8.56788063,7.711321354
0.400003125,0.173656225,8.436850548,9.204431534
0.410003125,0.847154737,8.052867889,9.657625198
0.420001562,1.180724502,7.654358387,9.470427513
0.430001562,1.378131151,7.352861404,9.338430405
0.440001562,1.446739435,7.345391273,9.353819847
0.450003125,1.325027823,7.390048027,9.562116623
0.460001562,1.05871594,7.446962833,9.491315842
0.470003125,0.780567169,7.425980091,9.552568436
0.480003125,0.674025238,7.312801361,9.640789032
0.490001562,0.579157352,7.076618195,9.686173439
0.500009375,0.327804506,6.745672703,9.786816597
0.510001562,-0.132533431,6.536840916,9.666858673
0.52000625,-0.626964808,6.33445406,9.792879105
0.530001562,-1.010975599,6.025716782,9.830007553
0.540003125,-1.371925354,5.733509541,9.762022018
0.550001562,-1.648838758,5.518902779,9.602520943
0.560001562,-1.769085169,5.208949566,9.497875214
0.570001562,-1.891706586,4.86706686,9.334043503
0.580001562,-2.042225122,4.436168194,9.181312561
0.590001562,-2.290226221,3.98778224,9.072328568
0.600001562,-2.607812166,3.516641617,8.969981194
0.610003125,-2.914892673,3.054206371,8.801841736
0.620001562,-3.219980955,2.650314093,8.660028458
0.630001562,-3.453645468,2.329184771,8.533652306
0.640001562,-3.554412603,1.938901067,8.52743721
0.650001562,-3.627110004,1.48848474,8.292470932
0.660001562,-3.81781292,1.15634191,8.174934387
0.670042187,-3.861243963,0.936247766,8.189414024
0.680003125,-3.793909311,0.794214129,8.065365791
0.690003125,-3.670923948,0.570097685,7.826702595
0.700001562,-3.523278236,0.164299697,7.673263073
0.710001562,-3.71536994,-0.139897987,7.591505527
0.720001562,-4.306172848,-0.154607967,7.547433376
0.730001562,-4.877898693,-0.217747852,7.653716564
0.740001562,-5.448733807,-0.290071875,7.821128845
0.750003125,-5.890425682,-0.310269386,7.766004562
0.760003125,-6.08213377,-0.371541768,7.389358521
0.770003125,-5.765821457,-0.509668052,7.073304653
0.780001562,-5.376132011,-0.6189394,6.883856297
0.790001562,-5.078207016,-0.648550928,6.64202261
0.800001562,-4.562495708,-0.708070755,6.466805458
0.810001562,-4.138272285,-0.688955426,6.229693413
0.820001562,-4.079987526,-0.438301712,5.892465115
0.830003125,-4.097494125,-0.13239935,5.504805565
0.840003125,-4.165824413,0.005363012,5.151402473
0.850003125,-4.136624813,0.421954095,4.296164989
0.860001562,-3.91187644,0.854318142,4.269579887
0.870001562,-3.827485561,0.91902864,4.077478409
0.880001562,-3.575663567,0.855745137,3.833835125
0.890001562,-3.334615231,1.059740663,3.748160839
0.900001562,-3.238368273,1.342045784,3.479043007
0.910003125,-3.11312294,1.352130175,3.22279644
0.920001562,-2.234211445,1.425028801,3.392066479
0.930001562,-1.460817337,1.905985594,3.261084557
0.940001562,-0.689491749,2.37733674,3.415309429
0.950001562,-0.464494258,2.581160069,3.652776003
0.960001562,-0.209751219,2.680270433,3.289795876
0.970003125,-0.028213272,2.952404976,3.440391064
0.980001562,0.354945183,3.265566587,3.374263287
0.990001562,0.849855363,3.551166058,3.874890804
1.000001562,1.398366928,3.746858358,3.949838877
1.010001562,1.999828696,3.833135843,3.963227272
1.020001562,2.571631193,3.878031969,4.046123981
1.030001562,2.687261343,4.052789688,3.632702827
1.040003125,3.277412891,4.048001289,3.444556952
1.050003125,3.581428766,4.10392952,3.281281948
1.060001562,3.930464983,4.231444836,3.235322952
1.070001562,4.683077335,4.396721363,3.282421589
1.080001562,5.670733452,4.426505089,3.358394384
1.090001562,6.488688469,4.505064011,3.266179323
1.100001562,7.117856026,4.642759323,3.048690081
1.110003125,7.855241299,4.854090691,2.872524738
1.120003125,8.864962578,4.981797218,2.82279253
1.130001562,9.735206604,5.241223335,2.616220713
1.140001562,10.52323437,5.660955429,2.34691143
1.150001562,11.27322388,6.048117161,2.336032152
1.160001562,12.04038239,6.442422867,2.628919601
1.170001562,12.89526653,6.882898808,2.923645735
1.180003125,13.90307236,7.12113142,2.972257614
1.190003125,14.5555582,7.353847504,2.820043802
1.200003125,14.92816448,7.501838207,2.660465479
1.210001562,15.28103924,7.54742384,2.647517681
1.220001562,15.5479269,7.51131916,2.414925814
1.230001562,16.00676155,7.407114029,2.49168396
1.240001562,16.57208061,7.422197342,2.709556341
1.250003125,16.83467484,7.434637547,2.68381381
1.260003125,16.81304359,7.388286114,2.539845705
1.270003125,16.55919838,7.212427139,2.453750134
1.280001562,15.96683502,6.910958767,2.307454824
1.290001562,15.09588146,6.55591774,2.283311844
1.300001562,14.20965385,6.273459435,2.532031059
1.310001562,13.71463966,6.159974098,2.559621811
1.320001562,13.70296478,6.083532333,1.981690288
1.330003125,13.6815033,6.204611778,1.669974804
1.340003125,13.34057713,6.429886818,1.792902708
1.350001562,12.75579929,6.426697731,1.993881464
1.360001562,11.92653465,6.084863186,2.095098734
1.370001562,11.00026417,5.574592113,2.103133678
1.380001562,10.00515938,5.093596935,2.293568611
1.390001562,9.052698135,4.777983665,2.743937016
1.400003125,8.282951355,4.650200367,3.219540358
1.410003125,7.672966003,4.644789219,3.383945465
1.420003125,7.270491123,4.50852108,3.521975994
1.430001562,6.91864872,4.360090256,3.931872845
1.440001562,6.47822094,4.293052673,4.669602871
1.450001562,5.861628056,4.316697598,5.424140453
1.460001562,5.290859699,4.336990833,5.791975975
1.470003125,4.879832745,4.311497211,5.976884842
1.480003125,4.469754219,4.216322899,6.122107506
1.490001562,3.978368282,4.157310963,6.44453001
1.500001562,3.428046465,4.156851292,6.856638908
1.510001562,2.881852627,4.140350342,7.301931858
1.520001562,2.501471519,4.11550808,7.843404293
1.530001562,2.10291338,4.072058201,8.365830421
1.540003125,1.70595479,4.114492893,8.756554604
1.550003125,1.292198539,4.319446087,9.06417942
1.560001562,0.926153779,4.640450954,9.209143639
1.570001562,0.726496518,4.942800522,9.026697159
1.580001562,0.738314331,5.091183662,8.730256081
1.590001562,0.829380155,5.147686481,8.45391655
1.600001562,0.922849774,5.245398998,8.14883709
1.610003125,0.933413029,5.448523045,7.839372635
1.620009375,0.912411094,5.659040451,7.72990036
1.630001562,0.922993422,5.79074049,7.680378437
1.640001562,1.032284021,5.895549297,7.753592968
1.650001562,1.321072578,6.037247658,7.886126518
1.660001562,1.669457674,6.190639019,8.028323174
1.67000625,2.044945002,6.256297588,8.226630211
1.680003125,2.500360489,6.22064352,8.36743927
1.690001562,2.934678316,6.132555962,8.576048851
1.700003125,3.212415218,6.111448765,8.798299789
1.710001562,3.443723917,6.170259953,8.986512184
1.720004687,3.424934149,6.305704594,9.145064354
1.730001562,3.298481941,6.411002636,9.245439529
1.740001562,3.357484579,6.401060581,9.278748512
1.750003125,3.488083601,6.346310139,9.220118523
1.760003125,3.503291607,6.251039982,9.185919762
1.77000625,3.151190758,6.233361244,9.183870316
1.780001562,2.383351088,6.182881832,9.432436943
1.790001562,1.825128555,6.053183079,9.903912544
1.800001562,1.506546617,5.7945714,10.21456432
1.810001562,1.256620646,5.382347107,10.35373402
1.820004687,1.145462632,4.931116581,10.45050907
1.830003125,1.087417603,4.487825394,10.42288876
1.840003125,1.142120361,3.991047859,10.25191402
1.850001562,1.206141353,3.560014963,9.990095139
1.860001562,1.248671889,3.450647831,10.01426697
1.870003125,1.730921626,3.56035018,10.2032156
1.880001562,2.56707263,3.816453218,10.23849678
1.890001562,3.358480692,4.041220665,10.31441212
1.900003125,4.110221863,4.161534309,10.27739811
1.910001562,4.603494167,4.178389549,10.08208847
1.920004687,4.781450272,4.158115387,9.702828407
1.930001562,4.979422092,4.197743893,9.537225723
1.940001562,5.365876198,4.338379383,9.379428864
1.950001562,6.04172945,4.547680378,9.375483513
1.960001562,6.922594547,4.776978016,9.596362114
1.970003125,7.827908993,4.932457447,9.505133629
1.980003125,8.574057579,5.070095539,9.203062057
1.990001562,8.805940628,5.219637394,8.954984665
2.000001562,8.564175606,5.333208561,8.665555
2.010001562,8.203742981,5.274158001,8.347987175
2.020001562,7.952197075,5.13167429,8.128898621
2.030001562,7.897398472,5.023475647,7.996317387
2.040003125,7.928389072,4.894293785,7.968468189
2.050003125,7.936423779,4.748305321,8.064590454
2.060001562,7.906208992,4.568615437,8.084777832
2.070001562,7.872853279,4.48149538,7.969645977
2.080001562,7.766158104,4.369667053,7.868993759
2.090001562,7.497289181,4.150281429,7.854197502
2.100001562,7.196941376,3.871950626,7.879451752
2.110003125,6.849628925,3.525318146,8.109160423
2.120001562,6.554682255,3.139889956,8.255264282
2.130001562,6.467246056,2.778202772,8.257246971
2.140001562,6.573213577,2.551586866,8.270482063
2.150001562,6.71379137,2.462436438,8.363233566
2.160001562,7.045072079,2.387066841,8.32038784
2.170001562,7.503619194,2.168045282,8.135814667
2.180003125,7.907674313,1.889714599,8.061794281
2.190001562,8.191569328,2.164291143,8.276239395
2.200003125,8.313397408,2.575902462,7.914666653
2.210001562,8.293927193,2.841170311,7.259966373
2.220001562,8.426470757,2.781602621,6.802750587
2.230001562,8.784296989,2.608731747,6.573299885
2.240001562,9.268720627,2.481082439,6.482875347
2.250003125,9.76918602,2.482480526,6.616232395
2.260003125,10.29533577,2.59306407,6.798747063
2.270003125,10.58552265,2.746101379,7.155847073
2.280001562,10.45434856,2.874248505,7.470569611
2.290001562,9.987057686,2.781276941,7.450726509
2.300001562,9.60718441,2.443570137,7.255618572
2.310001562,9.409489632,2.133942366,7.209333897
2.320001562,9.262141228,1.913043737,7.054869175
2.330003125,9.295085907,1.79923296,6.806782246
2.340003125,9.425397873,1.770253539,6.655344009
2.350001562,9.405333519,1.894426346,6.673731804
2.360001562,9.178124428,2.048814058,6.530328751
2.370001562,8.830841064,2.106073856,6.205205441
2.380001562,8.503428459,2.090262413,5.938434124
2.390001562,8.278758049,2.059827328,5.776518822
2.400003125,8.188610077,2.088577032,5.68848896
2.410001562,8.119551659,2.197235346,5.605726242
2.420001562,7.993913651,2.346844196,5.568798065
2.430001562,7.905902863,2.484961033,5.626029015
2.440001562,7.809360027,2.582309246,5.670762062
2.450001562,7.724115849,2.642575979,5.77456522
2.460001562,7.562938213,2.651587963,6.05401659
2.470003125,7.36960268,2.665665865,6.416211128
2.480001562,7.295955658,2.666125536,6.848450661
2.490001562,7.122921944,2.66057086,7.230747223
2.500001562,6.832131863,2.622742414,7.41567564
2.510001562,6.582828522,2.57180357,7.4701581
2.520001562,6.305417061,2.557256222,7.52216959
2.530001562,6.023657799,2.614410639,7.609079361
2.540003125,5.772056103,2.713549852,7.765535355
2.550003125,5.506194592,2.821231365,7.920689106
2.560001562,5.168410778,2.897204161,7.988272667
2.570001562,4.839639187,2.948191166,8.185899734
2.580001562,4.480978012,2.985234261,8.594486237
2.590001562,4.173773289,3.023100853,8.808717728
2.600001562,3.993365526,2.992397547,8.920451164
2.610003125,3.95825696,3.017172813,9.084319115
2.620001562,3.935923815,3.086279154,9.257851601
2.630001562,3.867554903,3.214196444,9.344473839
2.640001562,3.839514017,3.358336926,9.370407104
2.650001562,3.891889572,3.509133339,9.327157974
2.660001562,3.93012023,3.578651428,9.282378197
2.670001562,3.767237902,3.610053778,9.291254997
2.680003125,3.523259163,3.676746607,9.251626015
2.690001562,3.287688971,3.82080102,9.291983604
2.700003125,3.086355686,3.948660851,9.277522087
2.710001562,2.94073081,4.033961773,9.363444328
2.720001562,2.723758698,4.078819275,9.444168091
2.730001562,2.458749294,4.173179626,9.45208931
2.740001562,2.13665247,4.25896883,9.460744858
2.750001562,1.807239175,4.335822582,9.449445724
2.760003125,1.571802974,4.391301155,9.315906525
2.770003125,1.247953653,4.454507828,9.064992905
2.780001562,0.905142307,4.589426041,8.837620735
2.790001562,0.590410113,4.745594978,8.706389427
2.800001562,0.269347668,4.89835453,8.678166389
2.810001562,0.063542113,5.010365009,8.813735962
2.820001562,-0.075168356,5.08814764,8.995446205
2.830003125,-0.179478928,5.206373215,9.08946228
2.840003125,-0.320612311,5.501252651,9.092727661
2.850001562,-0.479673505,5.788001537,8.97595787
2.860001562,-0.544020057,5.98085928,8.728992462
2.870001562,-0.511755824,6.115987778,8.409700394
2.880001562,-0.529731452,6.306872845,8.333928108
2.890001562,-0.475239456,6.449203491,8.458148956
2.90000625,-0.519982278,6.472599506,8.831922531
2.910003125,-0.524330139,6.35943985,9.438843727
2.920001562,-0.379768252,6.13620472,10.09745026
2.930001562,-0.144542739,5.840635777,10.62508392
2.940001562,0.037656002,5.554030418,10.93642521
2.950004687,0.064863712,5.462859154,11.05595398
2.960001562,0.20088309,5.450275421,11.05634594
2.970003125,0.136440754,5.418576241,11.04489231
2.980003125,0.11847467,5.349077225,11.04912567
2.990001562,0.063398458,5.307619572,11.13514423
3.000001562,-0.076671913,5.198367119,11.30918503
3.010001562,-0.298987895,5.081530094,11.50104618
3.020001562,-0.463574886,4.918724537,11.62375259
3.030001562,-0.563872755,4.669870853,11.54009914
3.040003125,-0.649230838,4.46945715,11.33491611
3.050003125,-0.784369171,4.396109581,11.20971966
3.060001562,-1.007365108,4.296701431,11.15845585
3.070001562,-1.323773265,4.143146515,11.01839352
3.080001562,-1.683765411,4.083042622,10.89619446
3.090001562,-1.936698437,4.034555435,10.7993927
3.100001562,-2.080417633,3.94700408,10.55768299
3.110003125,-2.07838726,3.74584341,10.32907391
3.120001562,-2.091689348,3.537068844,10.15097427
3.130001562,-2.184699297,3.403280973,9.823993683
3.140001562,-2.329921961,3.368986368,9.542302132
3.150001562,-2.381368637,3.407006264,9.305256844
3.160001562,-2.238176346,3.427289963,9.112513542
3.170001562,-2.084755898,3.394269228,8.898682594
3.180003125,-1.981948853,3.408816338,8.722191811
3.190001562,-1.935644984,3.417052507,8.613331795
3.200003125,-1.869660735,3.447449207,8.421958923
3.210001562,-1.852068186,3.52016592,8.104066849
3.220001562,-1.826162934,3.619975328,7.829154015
3.230001562,-1.724782825,3.704337358,7.609289646
3.240001562,-1.529099941,3.776019812,7.34855175
3.250001562,-1.312616229,3.800268412,7.057168007
3.260003125,-1.071395636,3.795604467,6.773435593
3.270003125,-0.826622069,3.81995821,6.536189556
3.280001562,-0.760111153,3.98658514,6.37455225
3.290001562,-0.679330766,4.218592644,6.311844349
3.300001562,-0.504822195,4.273170948,6.435364723
3.310001562,-0.437612176,4.239834309,6.42270422
3.320001562,-0.295272082,4.089851856,6.28981638
3.330003125,-0.185110092,3.867143154,6.152849197
3.340003125,-0.255547494,3.787636518,5.899552345
3.350001562,-0.44755289,3.7944839,5.758821011
3.360001562,-0.516142011,3.692289829,5.935761929
3.370001562,-0.451019704,3.488399506,6.315080166
3.380001562,-0.366331995,3.271197557,6.718388081
3.390001562,-0.381913453,3.211256504,7.031702995
3.400003125,-0.338597566,3.104273796,7.301922321
3.410003125,-0.187408522,2.906167984,7.660765171
3.420001562,-0.114385374,2.710360765,7.798690319
3.430001562,-0.061578866,2.714565039,7.807415009
3.440001562,0.101734415,2.887435913,8.049182892
3.450001562,0.333541006,3.041603327,8.276007652
3.460001562,0.791886985,3.077066183,8.340105057
3.470003125,1.309312224,2.957087994,8.333248138
3.480003125,1.625078678,2.937608719,8.163846016
3.490001562,1.768261552,2.976356506,7.883847237
3.500001562,2.010468483,2.971587181,7.660324574
3.510001562,2.214071512,2.824755669,7.432752132
3.520001562,2.379261732,2.698906898,7.38503933
3.530001562,2.434558153,2.744013548,7.401339054
3.540003125,2.646626949,2.920935631,7.000664711
3.550003125,2.627885342,2.729935646,7.121332169
3.560001562,3.125486612,2.461220026,7.464919567
3.570001562,3.994428396,2.67837429,7.887132168
3.580001562,4.614775658,3.162031651,7.504798412
3.590001562,5.126790047,3.504785538,7.012836933
3.600001562,5.374848366,3.702134848,6.849140167
3.610003125,5.322741032,3.801858187,6.894572735
3.620001562,5.247984409,3.775215387,6.75316143
3.630004687,5.191960335,3.723289967,6.588670254
3.640001562,5.291110039,3.639550447,6.665083885
3.650001562,5.649386883,3.518250465,6.74639082
3.660001562,6.095445633,3.499930143,6.82694149
3.670001562,6.508397579,3.609661102,6.898202419
3.680003125,6.803593159,3.858830452,6.884775639
3.690003125,7.008766651,4.04838419,6.620848656
3.700003125,7.204506874,4.054369926,6.554404736
3.710001562,7.308980465,4.047895908,6.42762661
3.720001562,7.470119476,4.007424355,6.421334743
3.730001562,8.020125389,3.844340801,6.567103386
3.740001562,8.618887901,3.714565516,6.814558506
3.750001562,9.29820919,3.648677111,6.961687088
3.760003125,10.0421629,3.757354736,6.819395065
3.770003125,10.69325161,4.077325344,6.344011784
3.780001562,11.17151737,4.584378719,5.442355633
3.790001562,11.52588749,5.05013752,4.539473057
3.800001562,11.61579514,5.433305264,3.913791895
3.810001562,11.58784962,5.780704021,3.446089268
3.820001562,11.67599487,5.930121422,3.309571981
3.830003125,12.03466606,5.97145462,3.515856266
3.840003125,12.5333004,5.971943378,4.038290501
3.850001562,12.96010017,5.96925211,4.759739876
3.860001562,13.00463295,5.990100861,5.2294631
3.870001562,12.57448101,6.066169262,5.357093334
3.880001562,11.70636368,6.17386055,5.222146511
3.890001562,10.97346878,6.113201141,5.19001627
3.900003125,10.67154026,5.996124744,5.243856907
3.910001562,10.75638199,5.894265652,5.291549683
3.920001562,10.99027634,5.836977482,5.307322502
3.930001562,11.17711067,5.893863678,5.304162025
3.940001562,11.26171303,5.862643242,5.094334126
3.950001562,11.16246796,5.810956955,4.725263119
3.960001562,10.71107388,5.727562428,4.296758652
3.970003125,9.89857769,5.625072479,3.955795765
3.980003125,8.981111526,5.473748207,3.843364
3.990001562,8.317409515,5.29553318,4.184298038
4.000001562,7.902282715,5.164963245,4.729927063
4.010001562,7.618607998,5.047676086,5.319820404
4.020001562,7.560534477,4.925600529,5.872028351
4.030001562,7.495681286,4.871376514,6.186655045
4.040003125,7.283400536,4.915755749,6.041662216
4.050003125,6.967232227,5.018188953,5.637741566
4.060001562,6.581478119,5.117510319,5.232901096
4.070001562,6.190342426,5.195991993,4.781124592
4.080001562,5.957942009,5.165394306,4.524332523
4.090001562,5.918849468,5.008803844,4.463040829
4.100001562,6.000405312,4.85159111,4.590565681
4.110003125,6.029336929,4.815390587,4.954082012
4.120001562,5.682072639,4.942091942,5.506155968
4.130003125,5.071493626,5.059445858,6.206000328
4.140001562,4.383955479,5.024078846,6.631584167
4.150001562,3.695277691,4.918370247,6.713695526
4.160001562,3.110211611,4.757575512,6.776797295
4.170001562,2.674562693,4.67406559,6.977919579
4.180003125,2.36412096,4.562045574,7.262159348
4.190001562,2.350291967,4.423823833,7.515398979
4.200003125,2.307904959,4.308825493,7.674172878
4.210001562,2.04211998,4.340687275,7.937764645
4.220001562,1.559180737,4.334462643,8.296982765
4.230001562,0.931526363,4.302897453,8.615199089
4.240001562,0.346728265,4.181607246,9.02058506
4.250001562,-0.106254667,4.010843277,9.387845993
4.260003125,-0.376818597,3.853228092,9.701467514
4.270003125,-0.557379723,3.792080164,10.02684879
4.280001562,-0.568814397,3.775789976,10.15638542
4.290001562,-0.616353691,3.918149233,10.18491459
4.300001562,-0.819449008,4.227479935,9.972482681
4.310001562,-0.931583822,4.509210587,9.743328094
4.320001562,-1.027648807,4.628882408,9.549473763
4.330003125,-1.111943841,4.66030407,9.385720253
4.340003125,-1.194218159,4.601023197,9.328538895
4.350001562,-1.350243568,4.512533665,9.407344818
4.360001562,-1.507341385,4.424350262,9.400871277
4.370001562,-1.79433918,4.551118851,9.29859066
4.380001562,-1.979794025,4.724248409,9.261365891
4.390001562,-2.041870832,4.955307961,9.153166771
4.400003125,-1.936257839,5.18368578,8.872364998
4.410003125,-1.675644279,5.388840199,8.581441879
4.420001562,-1.444278121,5.543572903,8.253120422
4.430001562,-1.298423409,5.677619457,8.020882607
4.440001562,-1.181318283,5.792532444,7.825150967
4.450001562,-1.230447292,5.977660656,7.647185326
4.460001562,-1.3355335,6.130038261,7.768245697
4.470003125,-1.321513057,6.171303749,7.943462849
4.480003125,-1.197301865,6.126225471,8.094288826
4.490001562,-1.135215521,6.009273529,8.266048431
4.500001562,-1.110526443,5.874288559,8.442960739
4.510001562,-1.057739139,5.779688835,8.555909157
4.520001562,-1.0085814,5.871128082,8.744084358
4.530001562,-0.891208053,6.077661514,8.980697632
4.540003125,-0.772493958,6.179692745,9.017981529
4.550003125,-0.676754594,6.062961102,8.91162014
4.560001562,-0.51989609,5.889333725,8.798996925
4.570001562,-0.337678194,5.723875046,8.555430412
4.580001562,-0.242934853,5.587213993,8.392222404
4.590001562,-0.16752708,5.464401245,8.470197678
4.600001562,-0.155623108,5.438706875,8.592990875
4.610003125,-0.252358437,5.605592251,8.881368637
4.620001562,-0.20088309,5.847434998,9.421624184
4.630003125,-0.033873163,5.9559021,9.809562683
4.640001562,0.134755239,5.897761345,9.84406662
4.650001562,0.253929019,5.78513813,9.761811256
4.660001562,0.26317063,5.684370995,9.448065758
4.670001562,0.280964345,5.513424873,8.997228622
4.680003125,0.254953742,5.233485222,8.66591835
4.690003125,0.188998267,4.895481586,8.462247849
4.700003125,-0.048228797,4.717525482,8.365024567
4.710001562,-0.192177773,4.684331894,8.733597755
4.720001562,-0.135904461,4.724908829,9.359575272
4.730001562,-0.018138472,4.692539215,9.812578201
4.740001562,0.221645609,4.5795331,10.21892166
4.750001562,0.42036435,4.459228992,10.24620628
4.760003125,0.498367429,4.449154377,9.963795662
4.770003125,0.58650279,4.517140388,9.54009819
4.780001562,0.702142715,4.530145645,9.039796829
4.790001562,0.839809299,4.503081322,8.618878365
4.800001562,0.904730499,4.390314579,8.598095894
4.810001562,1.086335421,4.343579769,8.848834991
4.820001562,1.537738204,4.277480602,9.24478817
4.830003125,1.879477024,4.302236557,9.637218475
4.840003125,2.168495417,4.284050465,9.776501656
4.850001562,2.402179003,4.161361694,9.7224617
4.860001562,2.40871048,4.040100098,9.514183998
4.870001562,2.344296932,3.927477121,9.321383476
4.880001562,2.399871111,3.827466488,9.262505531
4.890001562,2.528727055,3.793190956,9.385990143
4.900003125,2.703408003,3.738248825,9.542445183
4.910003125,2.924507618,3.572388172,9.70306778
4.920001562,3.214598656,3.44105196,9.739392281
4.930001562,3.516909838,3.280889273,9.598431587
4.940001562,3.633028507,3.142791748,9.339751244
4.950001562,3.581351995,3.012470722,8.948596954
4.960001562,3.512341738,2.988260508,8.705480576
4.970003125,3.305492163,3.042206526,8.561388016
4.980003125,3.161160231,3.076874733,8.581652641
4.990001562,3.092944622,3.10385251,8.814559937
5.000001562,3.17538166,3.050595999,9.020355225
5.010001562,3.383342028,3.011426687,9.114629745
5.020001562,3.700123549,3.021060944,9.121086121
5.030001562,3.934506416,3.050883293,9.012540817
5.040003125,4.007021904,3.108516455,8.905070305
5.050003125,4.078876972,3.246393681,8.874999046
5.060001562,4.047311783,3.489587069,9.004899025
5.070001562,3.994763613,3.698534012,9.059112549
5.080001562,4.098796368,3.788048267,9.139224052
5.090001562,4.323209763,3.775406837,9.166221619
5.100001562,4.561423302,3.736544132,9.098722458
5.110003125,4.76962328,3.71420145,8.972337723
5.120001562,4.955144882,3.763771057,8.888281822
5.130003125,5.045559406,3.842482805,8.781682014
5.140001562,4.981155396,3.877687216,8.647310257
5.150001562,4.865984917,3.835482121,8.649848938
5.160001562,4.667419434,3.777015924,8.621482849
5.170001562,4.50365591,3.688286781,8.63288784
5.180003125,4.318814278,3.621335268,8.680820465
5.190003125,4.098509312,3.537011385,8.694791794
5.200003125,3.820293427,3.459669113,8.640548706
5.210001562,3.546530724,3.367703199,8.450784683
5.220001562,3.261850595,3.28554368,8.292480469
5.230001562,3.010909557,3.270412445,8.207401276
5.240001562,2.823031902,3.307072401,8.156173706
5.250001562,2.74506712,3.304697275,8.17450428
5.260003125,2.654259682,3.296288967,8.24376297
5.270003125,2.606030941,3.286606789,8.39242363
5.280001562,2.588352203,3.261189938,8.476509094
5.290001562,2.590162277,3.290724754,8.527849197
5.300001562,2.573728323,3.296126127,8.500545502
5.310001562,2.484271526,3.229308605,8.382291794
5.320001562,2.430928707,3.131452799,8.317255974
5.330009375,2.271283388,3.107223511,8.226956367
5.340003125,2.093662262,3.12543869,8.204669952
5.350001562,1.989524126,3.150913,8.26943779
5.360001562,1.940730214,3.21031785,8.388420105
5.370001562,1.936411142,3.2037673,8.462276459
5.380001562,1.898027301,3.180284977,8.565755844
5.390001562,1.844301343,3.226100445,8.736020088
5.400003125,1.77038753,3.204476118,8.87919426
5.410003125,1.688994288,3.168821573,8.937086105
5.420001562,1.691666245,3.133550167,9.011383057
5.430001562,1.677530885,3.168141603,9.111690521
5.440001562,1.627884746,3.187017441,9.093867302
5.450001562,1.580862641,3.158133984,9.10630703
5.460001562,1.565712094,3.186318398,9.196521759
5.470003125,1.552869558,3.1980021,9.263799667
5.480003125,1.53573668,3.232986212,9.305247307
5.490001562,1.528850913,3.220402241,9.388392448
5.500001562,1.517952561,3.194870472,9.399358749
5.510001562,1.505052567,3.129882336,9.351666451
5.520001562,1.483476043,3.112308741,9.287549019
5.530001562,1.703761697,3.17570734,9.370943069
5.540001562,1.681562662,3.281234026,9.412258148
5.550003125,1.714066386,3.374876261,9.282263756
5.560001562,1.729475498,3.480000734,9.447327614
5.570001562,1.737290144,3.55393362,9.49678421
5.580001562,1.732195258,3.57549119,9.498229027
5.590001562,1.721909761,3.523651838,9.528511047
5.600001562,1.659612656,3.483362198,9.508227348
5.610003125,1.512129903,3.429272413,9.440719604
5.620001562,1.301066637,3.327662468,9.341676712
5.630003125,1.093901157,3.216188431,9.238419533
5.640001562,0.94580543,3.137725592,9.215569496
5.650001562,0.775510609,3.078474045,9.223576546
5.66004375,0.632059634,3.05279851,9.257726669
5.670001562,0.520748436,2.951131105,9.317198753
5.680001562,0.382239074,2.754433155,9.178219795
5.690003125,0.377239972,2.631361723,9.035507202
5.700003125,0.46998176,2.634244204,9.066516876
5.710001562,0.39524439,2.691465616,8.852187157
5.720001562,0.304887205,2.714402199,8.667077065
5.730001562,0.21912691,2.751492977,8.665257454
5.740001562,0.198622972,2.809020996,8.663868904
5.750001562,0.201333195,2.838747263,8.7495327
5.760003125,0.272632539,2.855382204,8.792571068
5.770003125,0.446135521,2.879219055,8.896759033
5.780001562,0.588121235,2.961933851,8.922413826
5.790001562,0.670951068,3.064558983,8.87357235
5.800001562,0.770109296,3.160939932,8.897465706
5.810001562,0.880711854,3.245924473,8.993952751
5.820001562,0.974133611,3.282718658,9.088083267
5.830003125,1.078760147,3.289843798,9.173843384
5.840003125,1.240129352,3.327662468,9.321681023
5.850001562,1.361706972,3.410214663,9.414498329
5.860001562,1.350626588,3.435439825,9.360869408
5.870001562,1.392697453,3.445112467,9.380022049
5.880001562,1.466094136,3.400905848,9.579957962
5.890001562,1.496510029,3.315250874,9.671378136
5.900003125,1.481512785,3.288110256,9.783291817
5.910001562,1.523526192,3.264398098,9.969493866
5.920001562,1.611604095,3.272634268,9.977499962
5.930001562,1.641550779,3.251086473,9.951117516
5.940001562,1.626725912,3.235476255,9.840790749
5.950001562,1.572779775,3.212578058,9.665632248
5.960009375,1.548387647,3.12595582,9.556819916
5.970003125,1.443033218,3.03034091,9.447951317
5.980003125,1.419627428,2.999235392,9.380147934
5.990001562,1.337946892,2.918474197,9.449119568
6.000001562,1.165439844,2.784542561,9.447203636
6.010001562,1.011780024,2.637854815,9.399223328
6.020001562,0.90230757,2.517991304,9.353630066
6.030001562,0.814746797,2.40096283,9.370245934
6.040003125,0.770530701,2.346355915,9.329371452
6.050003125,0.694414258,2.284959078,9.294482231
6.060001562,0.616909146,2.267375946,9.37696743
6.070001562,0.555148304,2.266667366,9.381124496
6.080001562,0.450425923,2.219807863,9.380003929
6.090001562,0.347159237,2.212520123,9.331459045
6.100001562,0.344152123,2.192638636,9.218069077
6.110003125,0.438234657,2.264493227,9.215827942
6.120001562,0.534634769,2.388953447,9.168987274
6.130003125,0.501508594,2.533821821,9.142632484
6.140001562,0.421302855,2.641196966,9.178172112
6.150001562,0.356841385,2.652966976,9.142988205
6.160001562,0.387391388,2.594912291,9.014121056
6.170001562,0.492458552,2.577329397,9.023133278
6.180001562,0.650514126,2.60712266,9.057006836
6.190001562,0.824448109,2.69243288,9.093284607
6.200003125,0.991754889,2.768099308,9.06099987
6.210001562,1.131241083,2.852040052,9.030621529
6.220001562,1.201333761,3.003851414,9.125623703
6.230001562,1.1895926,3.083568811,9.085928917
6.240001562,1.130752683,3.149620056,9.118929863
6.250001562,1.048392177,3.158354044,9.193379402
6.260003125,0.992703021,3.150376558,9.228478432
6.270003125,1.088432789,3.083233595,9.321019173
6.280001562,1.065189838,3.027812719,9.338929176
6.290001562,0.995413244,2.959826946,9.505115509
6.300001562,0.968990862,2.892425299,9.627641678
6.310001562,1.011665106,2.841304302,9.967252731
6.320001562,0.772618413,2.829151392,10.00504303
6.330003125,0.693178833,2.742711067,10.12343121
6.340003125,0.528036356,2.681515455,10.01684189
6.350001562,0.573353827,2.568346262,9.907168388
6.360001562,0.619198024,2.528679132,9.701659203
6.370001562,0.769094169,2.570654154,9.638710976
6.380001562,0.792911708,2.6670928,9.469843864
6.390001562,0.829648316,2.781841993,9.321757317
6.400003125,0.989734232,2.787128448,9.322752953
6.410001562,1.08182478,2.747882605,9.194461823
6.420001562,1.112709999,2.781114101,9.016448021
6.430001562,1.144466639,2.814479828,8.844094276
6.440001562,1.189056277,2.849942684,8.673656464
6.450001562,1.205825329,2.856215477,8.515945435
6.460001562,1.241690397,2.851379156,8.389915466
6.470003125,1.227009177,2.839437008,8.375857353
6.480003125,1.168638587,2.851360083,8.577112198
6.490001562,1.148278236,2.805602074,8.731011391
6.500001562,1.151879072,2.772102356,8.833398819
6.510001562,1.218160152,2.809547663,8.956861496
6.520001562,1.239966631,2.85525775,8.85674572
6.530001562,1.167508483,2.826996565,8.688471794
6.540003125,0.982992113,2.714430809,8.499405861
6.550003125,1.172957659,2.621305943,8.120049477
6.560003125,1.274203658,2.651156902,8.220443726
6.570001562,1.284355044,2.74990344,8.407793999
6.580001562,1.470327139,2.906972647,8.613265038
6.590001562,1.749098301,3.161868811,9.187279701
6.600001562,2.180725098,3.640000582,9.68164444
6.610003125,2.468948603,4.150722027,10.09883976
6.620001562,2.652775288,4.470012665,10.01063538
6.630003125,2.964241743,4.493063927,9.972500801
6.640001562,3.10488677,4.386493206,9.926589966
6.650001562,3.019327641,4.511863232,10.37694931
6.660001562,2.915122509,4.709557533,11.03619766
6.670001562,2.864499331,4.825370789,11.45724106
6.680001562,2.952596426,4.870993614,11.66811371
6.690003125,3.365040779,4.913341999,11.69421959
6.700003125,3.621727943,5.099544048,11.73840809
6.710001562,3.990185976,5.433420181,11.9025526
6.720001562,4.884554386,5.815678596,10.47191334
6.730001562,4.392364025,6.136348248,11.33034801
6.740001562,5.216266155,6.319054604,10.1579752
6.750001562,5.020219326,6.428786755,10.00222683
6.760003125,5.019060612,6.426477432,10.61587238
6.770003125,5.795040607,6.522398949,10.73816681
6.780001562,6.339721203,6.773406982,9.446562767
6.790001562,6.539378643,6.59952116,9.273787498
6.800001562,6.871674538,6.178792477,9.589420319
6.810001562,6.961610317,5.933760643,9.863718987
6.820001562,6.846095085,5.844130993,10.64024448
6.830003125,6.619986534,5.764902115,11.60064411
6.840003125,6.410302639,5.513501644,12.24548912
6.850001562,6.366976738,5.128887177,12.56390762
6.860001562,6.379666328,4.784045696,12.73679924
6.870001562,6.338150978,4.622446537,12.91825008
6.880001562,6.401051044,4.573078156,12.99947166
6.890001562,6.596772194,4.457208633,12.96787834
6.900003125,6.731786251,4.328352451,12.87854481
6.910003125,6.607680321,4.216524124,12.6607008
6.920001562,6.386082649,4.115077019,12.32430553
6.930001562,6.197391033,4.034191608,11.84853935
6.940001562,6.06592989,3.871050596,11.25757408
6.950001562,5.910680294,3.676401854,10.76369953
6.960001562,5.767775536,3.537787199,10.45675373
6.970003125,5.63115263,3.465127945,10.21181679
6.980003125,5.434818268,3.377289534,10.04557228
6.990001562,5.184097767,3.217002392,9.890782356
7.000001562,4.963945866,3.171091318,9.809677124
7.010001562,4.791736126,3.295455694,9.731586456
7.020001562,4.790050507,3.455570221,9.584996223
7.030001562,4.896017551,3.431513309,9.262889862
7.040003125,4.863686562,3.200721979,8.713698387
7.050003125,4.595765591,2.881613255,8.008862495
7.060003125,4.055940151,2.534779549,7.085965157
7.070001562,3.361277103,2.364925385,6.19284296
7.080001562,2.584320307,2.386846542,5.675502777
7.090001562,1.985990286,2.537173748,5.285621643
7.100001562,1.535717487,2.58531642,5.072508812
7.110003125,1.198355317,2.475479841,5.124089241
7.120001562,0.903102398,2.172939062,5.126991272
7.130003125,0.574665844,1.906014323,4.834477425
7.140001562,0.149158761,1.709335446,4.308250904
7.150001562,-0.405692667,1.527931571,3.834687471
7.160001562,-1.049503088,1.388435841,3.413604736
7.170001562,-1.692690969,1.267595649,2.984975576
7.180001562,-2.331349134,1.168504477,2.671153307
7.190003125,-2.826996565,1.108026981,2.543207169
7.200003125,-3.315212727,1.137753367,2.640756369
7.210001562,-3.695239544,1.184947848,2.899349451
7.220001562,-3.874938726,1.245540261,3.071454287
7.230001562,-3.971530437,1.305874109,3.223725319
7.240001562,-3.946257114,1.272384048,3.40394187
7.250001562,-3.914768696,1.210651994,3.565167189
7.260003125,-3.865946054,1.188194394,3.778040648
7.270003125,-3.862546206,1.291710019,3.853055716
7.280001562,-3.84102726,1.446748972,3.667179346
7.290001562,-3.849359035,1.600159883,3.401557207
7.300001562,-3.916588306,1.760810733,3.139698505
7.310001562,-4.027554512,1.964298725,2.945615053
7.320001562,-4.065325737,2.170429945,2.775856495
7.330003125,-4.10504055,2.371600389,2.749395847
7.340003125,-4.130850315,2.447917938,2.898171425
7.350001562,-4.085370064,2.405693769,3.19557929
7.360001562,-4.036326885,2.309082985,3.558856249
7.370001562,-3.888192892,2.253633261,3.917555571
7.380001562,-3.54197216,2.225410461,4.28284359
7.390001562,-3.281866312,2.235973597,4.563941956
7.400003125,-3.081490755,2.257329941,4.726029396
7.410003125,-2.792069912,2.294612408,4.87831974
7.420001562,-2.51087594,2.375229836,5.08532238
7.430001562,-2.242370844,2.397601366,5.204304695
7.440001562,-1.683324814,2.301287413,5.409372807
7.450001562,-1.088423252,2.286203861,5.790405273
7.460001562,-0.592555344,2.415826082,6.070172787
7.470003125,-0.251735926,2.76885581,6.169694901
7.480003125,-0.059615619,3.153105974,6.174024582
7.490001562,0.100202128,3.467570066,6.110443115
7.500001562,0.135578841,3.718310118,6.061850071
7.510001562,0.132638767,3.965295792,6.06938839
7.520001562,0.303450674,4.174549103,6.14536953
7.530001562,0.594911218,4.395849705,6.303339005
7.540003125,1.131001711,4.536428928,6.339156151
7.550003125,1.721574545,4.699606895,6.519315243
7.560003125,2.167307854,4.892972469,6.884191513
7.570001562,2.627971411,4.875063896,7.047275066
7.580001562,2.858130932,4.595976353,7.012012959
7.590001562,2.554728031,4.405148983,6.936624527
7.600001562,2.007356167,4.445160866,6.96510601
7.610003125,1.6860255,4.786392212,7.623319626
7.620001562,1.961080909,5.235937119,8.666837692
7.630003125,2.681687832,5.45759201,9.621520042
7.640001562,3.706118822,5.397335052,10.5988245
7.650001562,4.551109314,5.20556879,11.22157478
7.660001562,4.984574318,4.93419075,11.28904438
7.670001562,4.806809902,4.60345602,11.08255768
7.680001562,4.293464184,4.70502758,10.99850273
7.690003125,4.009282112,5.394979,11.61932945
7.700003125,4.349009514,6.178257465,12.59237194
7.710001562,4.979651928,6.467494965,13.27714157
7.720001562,5.519467831,6.279923916,13.82119083
7.730001562,5.799618244,5.87409687,13.86538696
7.740001562,5.771270752,5.543601513,13.51084328
7.750001562,5.508138657,5.369629383,13.09876347
7.760003125,5.297391415,5.344557285,12.88087177
7.770003125,5.281129837,5.446598053,12.97012711
7.780001562,5.474734783,5.516930103,13.34314442
7.790001562,5.568510532,5.439760208,13.77985764
7.800001562,5.529801369,5.208930492,13.82590294
7.810001562,5.338878155,4.873090744,13.55789471
7.820001562,4.95452261,4.480403423,13.04545879
7.830003125,4.440171242,4.03892231,12.53212261
7.840003125,3.868579626,3.582999229,12.11228466
7.850001562,3.290916204,3.272049904,11.89422131
7.860001562,2.838929415,3.183014393,11.75608635
7.870001562,2.592499018,3.175391197,11.80823135
7.880001562,2.632913113,3.191202641,11.81957912
7.890001562,2.294258118,2.875867128,11.9027071
7.900003125,2.238865852,2.49067831,11.4789629
7.910003125,2.26970315,2.201516151,11.27264977
7.920001562,2.099236012,2.191422224,11.14815044
7.930001562,2.012058258,2.056810617,10.85404587
7.940001562,1.958993196,1.923300505,10.52676773
7.950001562,1.932302594,1.985406041,10.31901836
7.960001562,1.780127168,2.097004652,10.15567684
7.970003125,1.735030055,2.093173742,9.940420151
7.980003125,1.820589185,2.003266811,9.781885147
7.990001562,1.866998434,1.930071235,9.669327736
8.000001562,1.913896084,1.812343597,9.658774376
8.010001562,1.939705491,1.698427439,9.557204247
8.020001562,1.935530066,1.591119289,9.415322304
8.030001562,1.917267084,1.311189294,9.372055054
8.040003125,1.92611599,1.285801172,9.276115417
8.050003125,1.96458602,1.630489588,9.206519127
8.060003125,1.878385186,1.82062757,9.049995422
8.070001562,1.846877575,1.798706174,9.142824173
8.080001562,1.825214744,1.649020672,9.561244011
8.090001562,1.901695132,1.520806432,9.872979164
8.100001562,1.990376353,1.479319692,10.13634205
8.110003125,1.934332967,1.577778816,10.34842014
8.120003125,1.824400783,1.665607691,10.41446114
8.130003125,1.758378267,1.736284614,10.32735062
8.140001562,1.774716258,1.791399121,10.15579224
8.150001562,1.824994564,1.814986825,9.990898132
8.160001562,1.910611153,1.897711277,9.914083481
8.170001562,2.009376764,1.99962759,9.909016609
8.180001562,2.105068207,2.118351221,9.969896317
8.190003125,2.124566555,2.181088924,9.938368797
8.200003125,2.134679794,2.246670961,9.872413635
8.210001562,2.057442665,2.294420958,9.721791267
8.220001562,1.964155078,2.353423595,9.535473824
8.230001562,1.857498169,2.379692793,9.378068924
8.240001562,1.813684344,2.38946104,9.240143776
8.250001562,1.752651334,2.406105518,9.25214386
8.260003125,1.608826876,2.432240725,9.314889908
8.270003125,1.426206708,2.481800556,9.440729141
8.280001562,1.336855173,2.480038404,9.482302666
8.290001562,1.30328846,2.448492527,9.405209541
8.300001562,1.37715435,2.401738644,9.136771202
8.310001562,1.431157947,2.382144451,8.878953934
8.320001562,1.48818779,2.455723047,8.602146149
8.330003125,1.539998412,2.544059515,8.471968651
8.340003125,1.558280468,2.706530094,8.533911705
8.350001562,1.578458786,2.829496145,8.664664268
8.360001562,1.640583515,2.874420881,8.749792099
8.370001562,1.684512377,2.884945869,8.704320908
8.380001562,1.673786283,2.879171133,8.637236595
8.390001562,1.672081709,2.902433157,8.490326881
8.400003125,1.662533641,2.923942566,8.297796249
8.410003125,1.683899403,2.974929571,8.1443367
8.420001562,1.72484982,3.026663542,8.106719017
8.430001562,1.728230476,3.098738432,8.101729393
8.440001562,1.782473564,3.147340775,8.123717308
8.450001562,1.903409481,3.144563437,8.074904442
8.460001562,2.085177183,3.094323635,8.081685066
8.470003125,2.269664764,2.993853331,8.144059181
8.480003125,2.337095022,2.959041595,8.221726418
8.490001562,2.299190044,2.987733841,8.257017136
8.500001562,2.170410872,3.094946146,8.295573235
8.510001562,2.048210621,3.198480844,8.381420135
8.520001562,2.048833132,3.279663563,8.510390282
8.530001562,2.083185196,3.331253767,8.679872513
8.540003125,2.201181173,3.340801954,8.841240883
8.550003125,2.324118614,3.331790209,8.941108704
8.560003125,2.388292789,3.362215519,9.032891273
8.570001562,2.396289349,3.392602921,9.058844566
8.580001562,2.311716557,3.490784168,9.114524841
8.590001562,2.164185762,3.574782372,9.170376778
8.600001562,2.0785501,3.690010548,9.206193924
8.610001562,2.095299959,3.724420071,9.145888329
8.620001562,2.201832294,3.808188438,9.055090904
8.630003125,2.343166828,3.840270519,8.979855537
8.640001562,2.455646276,3.899254084,8.958480835
8.650001562,2.558472633,3.996793985,9.019465446
8.660001562,2.636207581,4.093232632,9.078928947
8.670001562,2.671220303,4.309553146,9.248877525
8.680001562,2.653234959,4.621067524,9.474621773
8.690003125,2.701387167,4.970209122,9.648172379
8.700003125,2.88434267,5.234117508,9.75652504
8.710001562,3.042541742,5.370357037,9.880440712
8.720001562,3.287899494,5.391292095,9.783158302
8.730001562,3.465022564,5.405522823,9.685609818
8.740001562,3.544059992,5.492767811,9.561052322
8.750001562,3.539214134,5.679247379,9.489198685
8.760003125,3.490180969,5.822669506,9.399656296
8.770003125,3.420442581,5.845452785,9.340451241
8.780001562,3.34190321,5.768685341,9.183870316
8.790001562,3.257148504,5.724507332,8.979213715
8.800001562,3.122240067,5.770284653,8.877211571
8.810001562,2.995960236,5.923293114,8.765201569
8.820001562,3.048220873,6.148387432,8.682035446
8.830003125,3.25033927,6.403828621,8.707050323
8.840003125,3.526946306,6.528384209,8.707692146
8.850001562,3.808312893,6.582723141,8.722948074
8.860001562,3.965564013,6.696495533,8.659491539
8.870001562,3.930512905,6.853210449,8.62550354
8.880001562,3.766749382,7.114887238,8.577629089
8.890001562,3.54901123,7.528423309,8.493479729
8.900003125,3.549978495,7.829010487,8.573444366
8.910003125,3.648686647,8.011746407,8.77277565
8.920001562,3.793056965,8.180526733,8.773581505
8.930001562,4.1310606,8.371095657,8.734574318
8.940001562,4.603580475,8.47369194,8.614356041
8.950001562,4.88460207,8.37946701,8.313482285
8.960001562,5.10747385,8.335202217,7.80472374
8.970003125,5.441024303,8.297958374,7.354364872
8.980003125,5.539569378,8.239625931,7.18189621
8.990001562,5.405628204,8.216269493,7.257563591
9.000001562,5.107205391,8.135641098,7.592750549
9.010001562,4.730425358,8.016353607,7.959561348
9.020001562,4.234212399,7.8606534,8.328527451
9.030001562,3.668070078,7.733376503,8.741844177
9.040003125,3.087409258,7.624727726,9.228862762
9.050003125,2.696905375,7.505620956,9.916314125
9.060003125,2.463011026,7.129060745,10.56423378
9.070001562,2.251334906,6.581545353,10.90384579
9.080001562,2.093987942,6.014531136,10.93308353
9.090003125,2.083300114,5.465579033,10.77665615
9.100001562,2.03910327,4.979259491,10.47682476
9.110001562,1.904424548,4.612439156,9.978898048
9.120001562,1.731256723,4.334213734,9.379169464
9.130001562,1.355855465,4.024576187,8.823734283
9.14,0.914259374,3.661059856,8.260608673
9.150001562,0.416907102,3.223936081,8.195888519
9.160001562,-0.186039045,2.693735361,8.50073719
9.170001562,-0.692738295,2.162107706,8.67888546
9.180001562,-1.009577394,1.610205889,8.744132042
9.190003125,-1.356181145,1.035520911,8.668025017
9.200003125,-1.775271773,0.604765773,8.362764359
9.210001562,-2.196766138,0.339277506,7.986367226
9.220001562,-2.58096838,0.225447595,7.662977219
9.230001562,-2.834792137,0.204780847,7.362802029
9.240001562,-2.80859971,0.150719777,7.050225735
9.250001562,-2.644280672,0.060841452,6.903028965
9.260003125,-2.57215786,0.05025908,6.890982628
9.270003125,-2.535382986,0.09259814,6.862615108
9.280001562,-2.465156078,0.153717324,6.807873726
9.290001562,-2.468546391,0.193566412,6.749359608
9.300001562,-2.537327051,0.31205067,6.59351635
9.310001562,-2.446912289,0.47925213,6.377952099
9.320001562,-2.199744463,0.628985465,6.180161953
9.330003125,-1.82856667,0.800774217,5.915564537
9.340003125,-1.409820795,0.994082093,5.726336479
9.350001562,-0.949540377,1.257367611,5.549807072
9.360001562,-0.470326543,1.466074944,5.360062122
9.370001562,0.080770783,1.662073851,5.116437435
9.380001562,0.583304107,1.902557135,4.885215282
9.390001562,0.955985546,2.223868608,4.586619854
9.400003125,1.334614158,2.529368639,4.280344009
9.410003125,1.599278808,2.812660217,3.996545076
9.420001562,1.770990968,3.085848093,3.894848824
9.430001562,1.908935189,3.323745489,3.971358061
9.440001562,2.016818047,3.503674507,4.103604317
9.450001562,2.280668497,3.651032925,4.215528011
9.460001562,2.797567129,3.700114012,4.233858109
9.470003125,3.283570766,3.794043303,4.49941349
9.480003125,3.6021626,3.892378092,4.804166794
9.490001562,3.746925592,3.968350887,5.042954922
9.500001562,3.725253105,4.12540102,5.310368061
9.510001562,3.653800726,4.332863331,5.575971127
9.520001562,3.659086943,4.527004242,5.870065212
9.530001562,3.939467192,4.686209202,6.219905853
9.540003125,4.498647213,4.753208637,6.613378525
9.550001562,5.370816708,4.711377144,6.815755844
9.560003125,5.957137585,4.684552193,6.831260681
9.570001562,6.238053799,4.653245926,6.689380169
9.580001562,6.08878994,4.773779392,6.39315033
9.590001562,5.392594337,5.130534649,6.235784054
9.600001562,4.50637579,5.595134258,6.412639141
9.610001562,3.876241207,5.995751381,6.789275646
9.620001562,3.634168148,6.296568394,7.363367081
9.630004687,3.814327002,6.475999355,7.930994034
9.640001562,4.49204874,6.4585886,8.427934647
9.650001562,5.094276905,6.504863739,8.921543121
9.660001562,5.445008278,6.78616333,8.975669861
9.670001562,5.527349472,7.282011986,8.799190521
9.680001562,5.350964069,7.75660038,8.723753929
9.690003125,4.952616692,8.055894852,8.687600136
9.700003125,4.588841915,8.180651665,8.6581707
9.710001562,4.317434788,8.182050705,8.609874725
9.720001562,4.265001774,8.03676033,8.649600029
9.730001562,4.274521351,7.912931919,8.877155304
9.740001562,4.191231728,7.925946712,9.177407265
9.750001562,3.990310431,7.969004154,9.525886536
9.760003125,3.705783606,7.924147606,9.805873871
9.770003125,3.331790209,7.860843658,9.997095108
9.780001562,2.878950834,7.714701653,9.986272812
9.790001562,2.43970108,7.537808418,9.731309891
9.800001562,2.228369713,7.350170135,9.437070847
9.810001562,2.154340982,7.088953018,9.231456757
9.820001562,2.179843903,6.76536274,9.059869766
9.830003125,2.076471806,6.634304047,9.136282921
9.840003125,2.000843763,6.681009769,9.547942162
9.850001562,1.05531621,6.726451874,9.95731163
9.860001562,0.217834041,6.722697735,9.984462738
9.870001562,-0.307626188,6.707997322,10.22152615
9.880001562,-0.533916533,6.483727932,10.16731262
9.890001562,-0.623737395,6.119713306,9.809053421
9.900003125,-0.558548093,5.91762352,9.366547585
9.910003125,-0.491462559,5.957128048,9.086896896
9.920001562,-0.571064949,6.16646719,8.935611725
9.930001562,-0.821651697,6.321764946,8.832334518
9.940001562,-0.948592246,6.385642052,8.868544579
9.950001562,-1.047357798,6.365004063,9.155179024
9.960001562,-1.128731966,6.303617001,9.433154106
9.970003125,-1.153995633,6.129031658,9.591161728
9.980003125,-1.128473401,5.926539421,9.609407425
9.990003125,-1.183166504,5.851974487,9.446628571
10.00000156,-1.297733903,5.957147121,9.120979309
10.01000156,-1.396652699,6.10599947,8.797676086
10.02000156,-1.418679357,6.109121323,8.579247475
10.03000156,-1.339919686,6.058852673,8.386218071
10.04000313,-1.137437344,5.984622955,8.45187664
10.05000313,-1.068378925,5.917470455,8.590080261
10.06000313,-0.96557194,5.899906635,8.641488075
10.07000156,-0.903744042,5.893710136,8.73764801
10.08000156,-0.845756531,5.85471344,8.80688858
10.09000156,-0.923635066,5.842292309,8.802933693
10.10000156,-0.945747912,5.823675156,8.531459808
10.11000156,-0.794137537,5.837561607,8.234119415
10.12000156,-0.646798372,5.792377949,7.990389347
10.13000313,-0.55953449,5.746821404,7.798652172
10.14000156,-0.434758276,5.679008007,7.833846569
10.15000156,-0.285158992,5.59140873,8.036876678
10.16000156,-0.047481805,5.474466324,8.199642181
10.17000156,0.103525281,5.416210651,8.254029274
10.18000156,0.177927479,5.420567989,8.343361855
10.19000313,0.014144943,5.343158722,8.330356598
10.20000313,-0.132092893,5.384310246,8.005501747
10.21000156,-0.113715,5.48706007,7.886883259
10.22000156,-0.179775804,5.356662273,7.869146824
10.23000156,-0.120658182,5.288504124,7.715563774
10.24000156,-0.052155286,5.336560249,7.771273136
10.25000156,0.022936452,5.298032761,7.959321976
10.26000313,0.148775682,5.171389103,8.033887863
10.27000313,0.277487963,5.140254974,8.122540474
10.28000156,0.177036837,5.025074959,8.0851717
10.29000156,0.11074619,5.036222458,7.88868475
10.30000156,0.168714598,5.184911728,7.890234947
10.31000156,-0.202300459,5.040407181,8.01743412
10.32000156,-0.291460514,5.053901196,7.891508579
10.33000313,-0.528936565,5.155443668,7.951842785
10.34000313,-0.74239403,5.115259647,7.86726141
10.35000156,-1.302713871,5.406097412,6.663513184
10.36000156,-1.388905048,5.214264393,7.876817703
10.37000156,-0.950507641,4.783011436,8.501121521
10.38000156,-0.798983395,4.688411713,9.169370651
10.39000156,-0.672971785,4.830502987,9.506590843
10.40000313,-0.720300317,4.96825552,9.276335716
10.41000313,-0.775060534,4.94188118,8.963133812
10.42000781,-0.760685742,5.006409645,8.479966164
10.43000156,-0.80769825,5.081511021,8.101816177
10.44000156,-0.80313015,5.162090302,7.878321648
10.45000156,-0.758463919,5.163459778,7.856869221
