Time (s),Gyroscope x (rad/s),Gyroscope y (rad/s),Gyroscope z (rad/s)
0.213483125,-0.571769834,-1.687506437,0.179419845
0.223483125,-0.407813638,-1.710911393,0.406190485
0.233481562,-0.169331849,-1.487352133,0.571211338
0.243487812,0.087231554,-1.021035075,0.631896436
0.253481562,0.307614267,-0.754872382,0.59356904
0.263481562,0.496057481,-0.61645031,0.483909994
0.273483125,0.584789991,-0.563252628,0.367688507
0.283483125,0.635230005,-0.5956285,0.2147104
0.293487812,0.610202014,-0.737837911,0.079970986
0.303481562,0.531382918,-0.941814542,-0.023998277
0.313481562,0.465252429,-1.137308955,-0.07663741
0.323481562,0.466666132,-1.302469373,-0.090093896
0.333481562,0.52759558,-1.38888061,-0.107948616
0.34348625,0.626730263,-1.482849121,-0.154583812
0.353483125,0.695845306,-1.479026914,-0.241396487
0.363483125,0.729791999,-1.182076573,-0.332083791
0.373481562,0.690364957,-0.625019848,-0.425807983
0.383481562,0.475986183,-0.329238921,-0.539847791
0.39348625,0.221429914,-0.179105684,-0.603604674
0.403483125,-0.006736971,0.04235914,-0.696421266
0.413481562,-0.119223438,0.2536138,-0.667832792
0.423483125,-0.112451561,0.416540265,-0.513196588
0.433483125,-0.052063171,0.404305518,-0.348262995
0.443487812,-0.000820305,0.2512227,-0.28342402
0.453481562,0.042603485,0.057491146,-0.328959644
0.463481562,0.110828407,-0.124843404,-0.44031167
0.473481562,0.203802094,-0.205355436,-0.537055254
0.483481562,0.306026042,-0.170082331,-0.561891317
0.493489375,0.406906068,-0.044924773,-0.482391536
0.503483125,0.452075183,0.136886179,-0.357251436
0.513483125,0.404549867,0.221325204,-0.256615758
0.523481562,0.26441738,0.030421089,-0.209230065
0.533481562,0.045535639,-0.195878297,-0.266389608
0.543481562,-0.1147554,-0.41289255,-0.395142555
0.553481562,-0.172263995,-0.663940728,-0.441899925
0.563489375,-0.157568321,-0.684902132,-0.496947587
0.573483125,-0.064385198,-0.651479065,-0.527106881
0.583481562,0.021223204,-0.594284594,-0.513772547
0.593481562,0.089011788,-0.519008577,-0.46261698
0.603481562,0.111299649,-0.473525286,-0.347809225
0.613481562,0.050230574,-0.483683079,-0.238621414
0.623481562,-0.031031953,-0.414463341,-0.161844388
0.633483125,-0.124023095,-0.354773074,-0.13540265
0.643483125,-0.181095362,-0.234223187,-0.140882984
0.653489375,-0.208915904,-0.07311184,-0.14892894
0.663481562,-0.249843881,-0.046076693,-0.127025068
0.673481562,-0.325538814,-0.20422098,-0.088924527
0.683481562,-0.37433821,-0.438321978,-0.044139378
0.693481562,-0.355366498,-0.611441195,0.011693706
0.70348625,-0.252723664,-0.717051089,0.093863808
0.713483125,-0.105330624,-0.78290236,0.218131244
0.723481562,0.046181411,-0.782029688,0.469598293
0.733481562,0.154356912,-0.453785598,0.66172415
0.743481562,0.2027549,-0.260368228,0.697189212
0.753484687,0.181723684,-0.175894275,0.626276493
0.763481562,0.103637651,-0.174515471,0.547492325
0.773483125,0.013945181,-0.075694926,0.591841161
0.783483125,0.001099557,0.227398947,0.962199986
0.793483125,0.05487315,0.824790239,1.611811519
0.803481562,0.153990403,1.308595538,2.08420229
0.813481562,0.14859733,1.455918789,2.230321407
0.823481562,0.007243116,1.102402329,1.788840294
0.833481562,-0.109275065,0.443069279,1.046708822
0.843481562,-0.085695669,-0.194900915,0.417831808
0.853487812,0.022165682,-0.678688705,0.023596851
0.863483125,0.157673046,-1.002866149,-0.286042005
0.873481562,0.291417629,-1.154378176,-0.566307008
0.883481562,0.407935798,-1.21104908,-0.785188735
0.893481562,0.487749726,-1.217454433,-0.862210095
0.903489375,0.536950529,-1.036027431,-0.789761484
0.913481562,0.663818538,-0.238569051,-0.665284574
0.923483125,0.608421803,0.303442955,-0.551157534
0.933483125,0.445739627,0.622297168,-0.473787069
0.943481562,0.173764974,0.689823925,-0.409768403
0.95348625,-0.07326892,0.528625309,-0.328296423
0.963481562,-0.2603333,0.267750949,-0.292621911
0.973481562,-0.335731536,-0.064664446,-0.313880026
0.983481562,-0.287979335,-0.435337484,-0.343463331
0.993483125,-0.147934109,-0.723945141,-0.353708416
1.003489375,0.05708972,-0.840428412,-0.295170069
1.013481562,0.241920084,-0.786201,-0.163135931
1.023481562,0.336185306,-0.650850713,0.017889624
1.033481562,0.291801602,-0.437955469,0.229545698
1.043481562,0.135053575,-0.263998508,0.448427439
1.053481562,-0.065554567,-0.102066852,0.632926226
1.063483125,-0.245550364,0.104475409,0.729896665
1.073483125,-0.382645994,0.252776027,0.72806412
1.083481562,-0.489198327,0.280160248,0.65990901
1.093481562,-0.549028218,0.129747778,0.567232013
1.103481562,-0.509793222,-0.107599549,0.618527234
1.113481562,-0.41573742,-0.318505138,0.733020842
1.123481562,-0.240262017,-0.567528725,0.937957406
1.133483125,-0.013997541,-0.65558058,1.233005285
1.143481562,0.173695162,-0.606205225,1.478293896
1.153481562,0.281085283,-0.483822733,1.670873523
1.163481562,0.269583553,-0.344545454,1.816905141
1.173481562,0.152768672,-0.226700813,1.889999628
1.183481562,-0.041852996,-0.160814643,1.891989231
1.193481562,-0.264626831,-0.133203521,1.876106739
1.203483125,-0.448619425,-0.123831108,1.880627155
1.213483125,-0.566219687,-0.075276047,1.889074564
1.223483125,-0.637080073,0.002111848,1.875007153
1.233481562,-0.665581286,0.090722211,1.859910131
1.243481562,-0.680416584,0.202336013,1.845441341
1.253481562,-0.713665128,0.272637874,1.855337381
1.263481562,-0.768485904,0.259530455,1.912008166
1.273483125,-0.771679878,0.23699826,1.979988813
1.283483125,-0.710820258,0.237539306,1.99007678
1.293483125,-0.647098243,0.289986461,1.913439393
1.303481562,-0.678147674,0.420571983,1.768419981
1.313481562,-0.852785349,0.616205931,1.590658188
1.323481562,-1.135930061,0.832330048,1.453562498
1.333481562,-1.437296033,0.958709359,1.413594484
1.343481562,-1.625529885,0.907640994,1.49195981
1.353483125,-1.615372062,0.704711616,1.586521745
1.363483125,-1.390102386,0.492933333,1.656073093
1.373481562,-1.139106631,0.330792248,1.645356774
1.383481562,-0.930626988,0.204098806,1.509186149
1.393481562,-0.812433302,0.170501217,1.341704369
1.403481562,-0.843395472,0.247103721,1.169632435
1.413481562,-0.988624275,0.384059697,1.041333199
1.423483125,-1.150171995,0.471186548,1.007805467
1.433483125,-1.215918541,0.483403832,1.01932466
1.443481562,-1.155530095,0.453663439,1.025206447
1.453481562,-0.992778182,0.427134424,0.997036815
1.463481562,-0.780825377,0.426279217,0.922284305
1.473481562,-0.606624067,0.441306502,0.806027949
1.483481562,-0.527578115,0.467870414,0.669857383
1.493483125,-0.552222192,0.485271335,0.54953438
1.503483125,-0.615699828,0.429979324,0.471221447
1.513481562,-0.626189232,0.301907063,0.447327882
1.523481562,-0.54079026,0.142855197,0.436279953
1.533481562,-0.401146472,0.010471975,0.408895731
1.543481562,-0.257139355,-0.094736472,0.366815835
1.553481562,-0.150517195,-0.183189765,0.302029222
1.563483125,-0.05523967,-0.181985483,0.265848547
1.573483125,-0.053023104,-0.168773338,0.231674999
1.583481562,-0.059288833,-0.164392561,0.174847081
1.593481562,-0.023928463,-0.132086515,0.144425988
1.603481562,0.043545965,-0.115174279,0.090844385
1.613481562,0.152367249,-0.124913216,0.018657569
1.623481562,0.279933363,-0.145159036,-0.05618215
1.633483125,0.399401158,-0.156503677,-0.144967049
1.643483125,0.462913662,-0.232704744,-0.173677713
1.653481562,0.484643012,-0.310930401,-0.24450317
1.663481562,0.522865713,-0.323898196,-0.311925232
1.673481562,0.576133192,-0.326917619,-0.371388614
1.683481562,0.667605877,-0.324282169,-0.423294693
1.693481562,0.759183288,-0.368369192,-0.457747489
1.703483125,0.899211109,-0.33723253,-0.497261763
1.713483125,1.050024986,-0.272393525,-0.501921773
1.723483125,1.158008456,-0.225182384,-0.508484244
1.733481562,1.200646877,-0.179000974,-0.524872839
1.743481562,1.215883613,-0.093322754,-0.548818767
1.753481562,1.190087676,-0.039165188,-0.563531935
1.763481562,1.152667761,-0.031677727,-0.564631462
1.773481562,1.14631474,-0.037175514,-0.55114007
1.783483125,1.17294848,-0.067666411,-0.524803042
1.793508125,1.221678138,-0.142645761,-0.489076167
1.803481562,1.274788499,-0.228271618,-0.452319533
1.813481562,1.30332458,-0.30787608,-0.411548644
1.823481562,1.293254018,-0.392105669,-0.376467526
1.833481562,1.249254346,-0.480820745,-0.353359371
1.843481562,1.186387539,-0.560756862,-0.358455718
1.853483125,1.125266075,-0.634462059,-0.385246515
1.863483125,1.090499163,-0.679526508,-0.423591405
1.873481562,1.08599627,-0.72022754,-0.460103691
1.883481562,1.095717669,-0.756879508,-0.489634663
1.893481562,1.085123539,-0.798575401,-0.530248463
1.903481562,1.023810148,-0.851476312,-0.590933561
1.913481562,0.916070938,-0.890658975,-0.657413185
1.923483125,0.77836448,-0.903836191,-0.727418303
1.933483125,0.638738155,-0.880152106,-0.789813817
1.943481562,0.520596802,-0.816255569,-0.828961551
1.953481562,0.442667842,-0.763127744,-0.840236425
1.963481562,0.416906804,-0.749322176,-0.81807071
1.973481562,0.440189481,-0.745325387,-0.780650854
1.983481562,0.463664174,-0.709982455,-0.789202988
1.993483125,0.440468729,-0.7269122,-0.865177155
2.003481562,0.385735214,-0.801141024,-0.989025712
2.013481562,0.314229071,-0.854146659,-1.134464025
2.023481562,0.233856663,-0.871861756,-1.273165345
2.033481562,0.155631006,-0.871931612,-1.376680851
2.043481562,0.082414448,-0.878790736,-1.434084654
2.053481562,0.032410763,-0.896994531,-1.438901782
2.063483125,0.016720254,-0.876347244,-1.406159401
2.073483125,0.011292281,-0.819728792,-1.364323854
2.083481562,0.006387905,-0.762063086,-1.328090787
2.093481562,-0.009599311,-0.702303052,-1.3234483
2.103481562,-0.044942226,-0.634566784,-1.36657536
2.113481562,-0.091176003,-0.576499701,-1.447436452
2.123481562,-0.128072262,-0.532918811,-1.537966728
2.133483125,-0.137584299,-0.492078125,-1.603521228
2.143483125,-0.120497532,-0.460871637,-1.619456053
2.153481562,-0.074193947,-0.428617954,-1.584758997
2.163481562,-0.00403171,-0.355453759,-1.516429305
2.173481562,0.060039327,-0.261467785,-1.436859727
2.183481562,0.094561942,-0.185371414,-1.368530154
2.193481562,0.102415919,-0.140219748,-1.318282127
2.203483125,0.1062731,-0.103288583,-1.2829566
2.213483125,0.111543991,-0.076148719,-1.264997125
2.223483125,0.105382979,-0.094980821,-1.249900103
2.233481562,0.087685339,-0.193277761,-1.216843605
2.243481562,0.083042763,-0.335906059,-1.163541198
2.253481562,0.10290461,-0.450085521,-1.094426155
2.263481562,0.145316109,-0.485131711,-1.022605896
2.273481562,0.196541533,-0.45148176,-0.976284802
2.283483125,0.235026032,-0.387497991,-0.966022313
2.293483125,0.243752688,-0.314211637,-0.991486609
2.303481562,0.213017434,-0.23994787,-1.037510991
2.313481562,0.145193934,-0.210381985,-1.0798527
2.323481562,0.052516956,-0.263789058,-1.097707391
2.333481562,-0.04712389,-0.406574458,-1.083674908
2.343481562,-0.123935826,-0.59983474,-1.042938948
2.353483125,-0.151616752,-0.739269137,-1.004245043
2.363483125,-0.142157063,-0.776619136,-0.990963042
2.373481562,-0.127513751,-0.761993289,-1.00715971
2.383481562,-0.131161496,-0.733387351,-1.041734695
2.393481562,-0.169890344,-0.692249954,-1.076553941
2.403481562,-0.235113308,-0.673313141,-1.107690692
2.413481562,-0.324858129,-0.693628728,-1.131008267
2.423481562,-0.406679153,-0.748065591,-1.140014172
2.433483125,-0.462337703,-0.800757051,-1.141759515
2.443481562,-0.493422031,-0.835733473,-1.14743185
2.453481562,-0.513650417,-0.86573565,-1.178376436
2.463481562,-0.552588701,-0.870430589,-1.254734635
2.473481562,-0.635928154,-0.839363754,-1.364009738
2.483481562,-0.770213783,-0.785520315,-1.477246642
2.493483125,-0.948813319,-0.742410719,-1.564617872
2.503481562,-1.142178416,-0.716876507,-1.604236841
2.51348,-1.317339659,-0.72031486,-1.592647791
2.523481562,-1.43736589,-0.752376556,-1.527599454
2.533481562,-1.478520751,-0.80611521,-1.418202162
2.543481562,-1.436615467,-0.852401376,-1.289187431
2.553481562,-1.340709567,-0.871512711,-1.187748909
2.563483125,-1.232202411,-0.887325406,-1.121461272
2.573483125,-1.124166608,-0.86573565,-1.08088243
2.583481562,-1.025503159,-0.753982246,-1.059292674
2.593481562,-0.959739089,-0.595855415,-1.043165803
2.603481562,-0.930225611,-0.4437325,-1.00646162
2.613481562,-0.913226068,-0.320529729,-0.922773004
2.623481562,-0.8883726,-0.245742351,-0.780074894
2.633483125,-0.856118917,-0.220731795,-0.594581306
2.643483125,-0.810845077,-0.236492112,-0.386101723
2.653483125,-0.728692412,-0.23755677,-0.175388142
2.663481562,-0.611493528,-0.169907808,0.000890118
2.673481562,-0.478429645,-0.078260563,0.144408539
2.683481562,-0.36386624,-0.006352998,0.215164185
2.693481562,-0.296967775,0.063495077,0.19716984
2.703483125,-0.310878038,0.182927951,0.133971468
2.713483125,-0.407255113,0.33747685,0.10421361
2.723483125,-0.553269386,0.483421296,0.15655604
2.733481562,-0.700819492,0.599764943,0.303966552
2.743481562,-0.804526985,0.689090908,0.516320765
2.753481562,-0.841353416,0.703891277,0.743370652
2.763481562,-0.796184301,0.643799603,0.935513914
2.773481562,-0.679002881,0.590532124,1.06121254
2.783483125,-0.52450633,0.5821895,1.149124742
2.793481562,-0.37672931,0.577302575,1.261017799
2.803481562,-0.268414199,0.529934347,1.419563532
2.813481562,-0.18875736,0.492828608,1.621969342
2.823481562,-0.119624868,0.4509058,1.836592555
2.833481562,-0.047961649,0.405335277,1.998803377
2.843481562,0.020036379,0.444727331,2.067167997
2.853483125,0.056269415,0.622244775,2.050761938
2.863483125,0.021642083,0.829258263,2.023464918
2.873481562,-0.069202304,0.925408483,2.076592684
2.883481562,-0.154461637,0.885754585,2.227441549
2.893481562,-0.151948363,0.794543684,2.427316666
2.903481562,-0.024888394,0.768067062,2.601797104
2.913481562,0.161460415,0.816639543,2.681715727
2.923483125,0.322449565,0.922005057,2.655413628
2.933483125,0.430293471,1.105543852,2.54566741
2.943481562,0.416540265,1.278418779,2.412778139
2.953481562,0.29888764,1.328771472,2.349876404
2.963481562,0.187378541,1.272362471,2.412760496
2.973481562,0.180920824,1.177660942,2.552666187
2.983481562,0.303390592,1.116015911,2.678207636
2.993483125,0.52145201,1.141131163,2.725785494
3.003481562,0.759218216,1.252430797,2.661923885
3.01348625,0.907588661,1.412756801,2.488472939
3.023481562,0.905075371,1.539642215,2.265123129
3.033481562,0.740508318,1.565036774,2.074585676
3.043481562,0.487208664,1.508784771,1.966148257
3.053481562,0.2507689,1.418184757,1.942568898
3.063483125,0.111404367,1.306309104,1.963216186
3.073481562,0.096010558,1.205917835,1.981594443
3.083481562,0.186156824,1.159125566,1.952988505
3.093481562,0.320023566,1.166927099,1.86526823
3.103481562,0.430328369,1.18511343,1.738557339
3.113481562,0.479895741,1.196458101,1.613853574
3.123481562,0.462704241,1.180104375,1.516307116
3.133483125,0.397743076,1.108214259,1.452393174
3.143481562,0.313984722,0.977087677,1.409510493
3.153483125,0.236719012,0.793932796,1.369699478
3.163481562,0.185668126,0.600463092,1.315088153
3.173481562,0.165753916,0.443313628,1.226233363
3.183481562,0.165928453,0.354999959,1.115335226
3.193481562,0.167795956,0.303600013,0.972986162
3.203483125,0.153763503,0.257226616,0.833377242
3.213483125,0.118507855,0.182526529,0.739670515
3.223481562,0.09351474,0.084735736,0.698114216
3.233481562,0.094753921,-0.006597345,0.696421266
3.243481562,0.124791041,-0.11599458,0.708865464
3.253481562,0.150953531,-0.221778989,0.695339143
3.263481562,0.155735731,-0.328313887,0.644480288
3.273481562,0.152332336,-0.418303072,0.557423234
3.283483125,0.146607652,-0.47115162,0.449055761
3.293483125,0.14198254,-0.47366491,0.314578146
3.303481562,0.125105202,-0.436751187,0.154601261
3.313481562,0.083304562,-0.389941454,-0.025080381
3.323481562,-0.004991642,-0.347931385,-0.216455728
3.333481562,-0.162263259,-0.328069538,-0.403799385
3.343481562,-0.369154602,-0.323234975,-0.583306491
3.353483125,-0.609102428,-0.303739637,-0.769061863
3.363481562,-0.845123351,-0.264155567,-0.950855374
3.373481562,-1.025066733,-0.212773085,-1.129350185
3.383481562,-1.130502105,-0.138858393,-1.302783608
3.393481562,-1.159142971,-0.060807269,-1.473040462
3.403481562,-1.12219429,0.01870993,-1.623993993
3.413481562,-1.032850981,0.085957468,-1.743898034
3.423483125,-0.916297853,0.129800141,-1.830850363
3.433483125,-0.809920013,0.125105202,-1.902077317
3.443481562,-0.745360315,0.05708972,-1.96574688
3.453481562,-0.732881188,-0.065414943,-2.04264617
3.463481562,-0.755797386,-0.227468759,-2.121831656
3.473481562,-0.778608859,-0.383047402,-2.201593161
3.483481562,-0.775554478,-0.495690972,-2.286293983
3.493483125,-0.762743771,-0.553321719,-2.37760973
3.503481562,-0.751503885,-0.594214797,-2.453479052
3.513481562,-0.744243324,-0.672737181,-2.49116087
3.523481562,-0.730769336,-0.81794858,-2.485872507
3.533481562,-0.69314003,-0.978501379,-2.457877398
3.543481562,-0.628143966,-1.109907269,-2.443530798
3.553483125,-0.562886119,-1.17909205,-2.471927166
3.563481562,-0.558383167,-1.159579277,-2.561916351
3.573483125,-0.655109346,-1.077339411,-2.67640996
3.583481562,-0.814667344,-0.96382314,-2.760011196
3.593481562,-0.989270091,-0.813847005,-2.79779768
3.603481562,-1.153435707,-0.668304026,-2.787988901
3.613481562,-1.261750817,-0.562327623,-2.72349906
3.623481562,-1.308735132,-0.512149394,-2.637332201
3.633483125,-1.314058423,-0.539900124,-2.551653862
3.643483125,-1.267615199,-0.61748004,-2.483673334
3.653483125,-1.171988606,-0.681812882,-2.448836565
3.663481562,-1.062504053,-0.722653568,-2.442082167
3.673481562,-0.937660694,-0.741398394,-2.441384077
3.683481562,-0.793740809,-0.728832066,-2.422743797
3.693481562,-0.643450558,-0.685704947,-2.356648207
3.703483125,-0.504574656,-0.654585719,-2.243515968
3.713483125,-0.353708416,-0.667780399,-2.068599224
3.723483125,-0.227608383,-0.718098283,-1.900244713
3.733481562,-0.178826436,-0.779324412,-1.787827969
3.743481562,-0.225444183,-0.812974334,-1.745399117
3.753481562,-0.345069051,-0.768782616,-1.750984073
3.763481562,-0.482321739,-0.668146968,-1.747772694
3.773481562,-0.559482753,-0.525291741,-1.698519468
3.783483125,-0.542989373,-0.369747996,-1.594620109
3.793483125,-0.445757091,-0.270456225,-1.457070708
3.803481562,-0.322851002,-0.222250223,-1.315594316
3.813481562,-0.240035132,-0.187204018,-1.204748392
3.823481562,-0.210504159,-0.192474917,-1.112804532
3.833481562,-0.204971462,-0.211115032,-1.023478508
3.843481562,-0.197134942,-0.204622403,-0.943926394
3.853483125,-0.174166411,-0.174323484,-0.864810646
3.863483125,-0.129451066,-0.135105938,-0.773739338
3.873481562,-0.064367741,-0.109170347,-0.671777248
3.883481562,-0.000663225,-0.07770206,-0.571001887
3.893481562,0.059672806,-0.04845034,-0.470261514
3.903484687,0.111910515,-0.036355209,-0.365786105
3.913481562,0.142069802,-0.034382988,-0.270857632
3.923483125,0.149888873,-0.024958208,-0.196646243
3.933481562,0.156032428,-0.003682645,-0.138788581
3.943481562,0.166836023,0.027227135,-0.098314397
3.953484687,0.172281444,0.066497043,-0.078644536
3.963481562,0.164828897,0.087406091,-0.073600531
3.97348625,0.1521229,0.100129537,-0.066374868
3.983481562,0.139678702,0.10274753,-0.033719759
3.993483125,0.13426818,0.096743599,0.02755875
4.003483125,0.126257122,0.061156336,0.121946156
4.013481562,0.125140101,-0.009773844,0.245899439
4.023481562,0.150831357,-0.07754498,0.383012503
4.033481562,0.211359367,-0.112346843,0.519951046
4.043481562,0.289497763,-0.138142809,0.636556506
4.053481562,0.364634186,-0.164427474,0.729285836
4.063490937,0.414323717,-0.181566596,0.8062374
4.073483125,0.42723915,-0.19648917,0.880117178
4.08348,0.412124604,-0.191898957,0.956021547
4.093481562,0.384269148,-0.142872646,1.026393175
4.103481562,0.344685078,-0.07663741,1.091616154
4.113484687,0.286792487,-0.019739674,1.158706665
4.123481562,0.205198362,-0.003804818,1.247142434
4.133483125,0.119886667,-0.046024334,1.36636591
4.143483125,0.054890607,-0.152384698,1.542295098
4.153483125,0.056391589,-0.309045464,1.759623528
4.16352375,0.14917329,-0.396643519,1.960737824
4.173481562,0.283371657,-0.38423422,2.100625992
4.183481562,0.397481292,-0.354458928,2.170125008
4.193481562,0.464344859,-0.316655099,2.188154221
4.203483125,0.476754129,-0.271747768,2.190056562
4.213483125,0.425563633,-0.276774317,2.185553551
4.223483125,0.327057242,-0.350828618,2.202029467
4.233481562,0.238045454,-0.524890304,2.262435436
4.243481562,0.252409518,-0.677170277,2.324115276
4.253481562,0.388806999,-0.741939485,2.364956141
4.263481562,0.611004889,-0.691673994,2.348742008
4.273481562,0.849469185,-0.541488409,2.270498753
4.283481562,1.028644681,-0.305118471,2.146912098
4.293483125,1.084722161,-0.045814894,2.008332968
4.303481562,1.014786839,0.149120927,1.8929317
4.313481562,0.858702004,0.242583305,1.830065012
4.323481562,0.67800808,0.214274079,1.832333922
4.333481562,0.577023327,0.154461637,1.849507928
4.34348,0.599555492,0.158685341,1.831653237
4.353483125,0.716038764,0.247906566,1.758506536
4.363483125,0.853256583,0.382733256,1.621375918
4.373481562,0.945985913,0.526094615,1.461399078
4.383481562,0.967086911,0.643520355,1.334670782
4.393481562,0.91636765,0.700732231,1.27557385
4.403481562,0.826221406,0.720628977,1.27351439
4.413481562,0.721728563,0.722636104,1.307024717
4.423483125,0.621075392,0.716841638,1.350047112
4.433483125,0.532115996,0.667466283,1.393401027
4.443481562,0.489407778,0.573951542,1.430908203
4.453481562,0.51848495,0.482705712,1.454138517
4.463481562,0.60552454,0.398615748,1.457349896
4.473481562,0.715393007,0.288747281,1.444626451
4.483481562,0.807703495,0.172682881,1.428080797
4.493483125,0.879523754,0.061295964,1.407049537
4.503483125,0.905162632,0.009162978,1.420069695
4.513481562,0.893573642,-0.072396256,1.449600697
4.523481562,0.85753262,-0.19741419,1.497509956
4.533481562,0.847985685,-0.258343637,1.56432116
4.543481562,0.890117943,-0.272760063,1.647765398
4.553481562,0.980665624,-0.279078156,1.712691545
4.563483125,1.084914088,-0.28445375,1.736881852
4.573483125,1.170051217,-0.272201538,1.715588808
4.583481562,1.235588431,-0.237312421,1.652076364
4.593481562,1.275661111,-0.182631254,1.558037996
4.603481562,1.274561644,-0.145019412,1.438657403
4.613481562,1.242953658,-0.186226636,1.314808846
4.623481562,1.205184698,-0.276442707,1.196999192
4.633483125,1.188342333,-0.370306492,1.075733662
4.643483125,1.190611243,-0.393938273,0.912999153
4.653483125,1.186160684,-0.341578394,0.695426464
4.663481562,1.154954195,-0.260699838,0.426924974
4.673481562,1.088858604,-0.198705733,0.153693691
4.683481562,1.005815744,-0.167132735,-0.08066912
4.693481562,0.932442129,-0.16999507,-0.252880752
4.703481562,0.908688247,-0.192265466,-0.369154602
4.713483125,0.955340862,-0.190275788,-0.451342136
4.723483125,1.058036089,-0.186104462,-0.520335019
4.733481562,1.191606045,-0.17418386,-0.607514203
4.743481562,1.289641261,-0.14062117,-0.729250908
4.753481562,1.32608366,-0.123290055,-0.914168537
4.763481562,1.279343843,-0.157568321,-1.127901554
4.773481562,1.17031312,-0.212965071,-1.331808329
4.783483125,1.046324849,-0.252968013,-1.495816946
4.793483125,0.93207562,-0.282289565,-1.606261373
4.803481562,0.858160913,-0.313792735,-1.654205561
4.813481562,0.838107109,-0.32210052,-1.665934205
4.823481562,0.833324909,-0.293128043,-1.67514956
4.833481562,0.788103402,-0.252968013,-1.700107813
4.843481562,0.660240591,-0.250158042,-1.754928589
4.853483125,0.456647933,-0.312501192,-1.819784999
4.863483125,0.239092648,-0.361073703,-1.876630306
4.873481562,0.095678948,-0.346901655,-1.91033268
4.883481562,0.053808499,-0.297386646,-1.926319838
4.893481562,0.083548911,-0.261083812,-1.931171894
4.903481562,0.145054311,-0.226822987,-1.937455058
4.913481562,0.189542755,-0.186872408,-1.95721221
4.923483125,0.166364789,-0.197484002,-1.976044297
4.933483125,0.068940505,-0.283458918,-1.98735404
4.943481562,-0.069516465,-0.40811035,-1.986551166
4.953481562,-0.183050126,-0.466212362,-1.971663594
4.963481562,-0.227835283,-0.444360822,-1.962640166
4.973481562,-0.226020142,-0.371912211,-1.960231662
4.983481562,-0.19832176,-0.298695654,-1.957107544
4.993483125,-0.166102991,-0.263649434,-1.954594254
5.003483125,-0.148405343,-0.267349541,-1.946426034
5.013481562,-0.15132004,-0.310441703,-1.940404654
5.023481562,-0.19238764,-0.372540534,-1.957159877
5.033481562,-0.280212611,-0.476823956,-1.97824347
5.043481562,-0.395753413,-0.614460588,-1.978173614
5.053481562,-0.48401472,-0.720925689,-1.953599334
5.063483125,-0.519601941,-0.74876368,-1.915306807
5.073481562,-0.517804265,-0.721606374,-1.873733163
5.083481562,-0.504976094,-0.707486689,-1.843364358
5.093481562,-0.513598025,-0.727139056,-1.829960227
5.103481562,-0.542570531,-0.780807972,-1.813257456
5.113481562,-0.573951542,-0.839538276,-1.771107793
5.123481562,-0.588716984,-0.879488885,-1.698798776
5.133483125,-0.581945121,-0.900380433,-1.610380411
5.143483125,-0.563200295,-0.896383643,-1.530130148
5.153483125,-0.556288779,-0.870640039,-1.475291848
5.163481562,-0.581002653,-0.815121114,-1.435742736
5.173481562,-0.635579109,-0.729565084,-1.413018584
5.183481562,-0.712094307,-0.66502279,-1.415898323
5.193481562,-0.812538028,-0.652526259,-1.455482364
5.203481562,-0.926106632,-0.692773521,-1.517738342
5.213483125,-1.01627028,-0.777352214,-1.569330215
5.223483125,-1.063271999,-0.855804741,-1.595021486
5.233481562,-1.066989541,-0.893992543,-1.587865591
5.243481562,-1.019953012,-0.883729994,-1.552994013
5.253481562,-0.937765419,-0.803654313,-1.51405561
5.263481562,-0.855804741,-0.66230011,-1.484350204
5.273481562,-0.787475109,-0.45647341,-1.440891504
5.283483125,-0.761312604,-0.264365017,-1.356155753
5.293483125,-0.771662414,-0.155334309,-1.240492821
5.303481562,-0.795137107,-0.146572754,-1.113101125
5.313481562,-0.806429386,-0.222564384,-0.982777417
5.323481562,-0.788679361,-0.363761514,-0.869313598
5.333481562,-0.752847791,-0.50562191,-0.780563593
5.343481562,-0.718150616,-0.604669333,-0.704606891
5.353483125,-0.689998448,-0.671672523,-0.616083741
5.363483125,-0.651705921,-0.713124096,-0.508972943
5.373481562,-0.57559216,-0.74616313,-0.38023743
5.383481562,-0.459754616,-0.771627486,-0.260246038
5.393481562,-0.349484742,-0.743108809,-0.179140598
5.403481562,-0.303739637,-0.600934327,-0.112887897
5.413481562,-0.342171788,-0.368334293,0.004276057
5.423483125,-0.427413672,-0.098070048,0.201428443
5.433483125,-0.504120886,0.173538089,0.470313877
5.443481562,-0.52384311,0.403136164,0.752551079
5.453481562,-0.478220224,0.566690981,0.979670763
5.463481562,-0.388231039,0.656191409,1.129611969
5.473481562,-0.26886797,0.689090908,1.213248134
5.483481562,-0.156590939,0.713874578,1.243023515
5.493483125,-0.079412483,0.732025981,1.284003854
5.503483125,-0.013124876,0.719703972,1.376750588
5.513481562,0.045902159,0.698166609,1.507702708
5.523481562,0.096987948,0.710366428,1.63474524
5.533481562,0.155561194,0.757438004,1.760339022
5.543481562,0.213488668,0.837531149,1.86448288
5.553481562,0.256441236,0.943141043,1.916755438
5.563483125,0.242146984,1.05210197,1.899389505
5.573483125,0.147532687,1.109296322,1.895863891
5.583483125,0.030613074,1.080114484,1.96641016
5.593481562,-0.015079645,1.001731753,2.108549833
5.603481562,0.054349553,0.904010713,2.279574633
5.613481562,0.22415264,0.801018834,2.435135841
5.623481562,0.427448571,0.713036835,2.552927971
5.633483125,0.596431375,0.670520604,2.635045767
5.643483125,0.699493051,0.684954464,2.689674616
5.653483125,0.731624544,0.72373569,2.733237982
5.663481562,0.701028943,0.748903334,2.765631199
5.673481562,0.655894756,0.770981729,2.787552595
5.683481562,0.640169322,0.821456671,2.785650253
5.693481562,0.675808966,0.928061366,2.738491297
5.703481562,0.751242042,1.101721644,2.621013403
5.713483125,0.818315089,1.292067289,2.435327768
5.723483125,0.814702213,1.403087616,2.230844975
5.733481562,0.73375386,1.430349708,2.063729763
5.743481562,0.602208376,1.398863912,1.965834141
5.753481562,0.481134921,1.313185692,1.939392447
5.763481562,0.443697602,1.249516129,1.943406701
5.773481562,0.491362542,1.260302305,1.921293378
5.783483125,0.556201518,1.295767307,1.841479421
5.793483125,0.591055751,1.291508794,1.684242725
5.803481562,0.549167871,1.188394666,1.499970913
5.813481562,0.456386149,0.991835713,1.352298498
5.823481562,0.395770848,0.841510475,1.264909863
5.833481562,0.403677195,0.785904288,1.214208126
5.843481562,0.450120419,0.760335207,1.17554903
5.853483125,0.500926971,0.743335724,1.125283599
5.863483125,0.541104436,0.733195364,1.052974582
5.873481562,0.548190475,0.726179123,0.951780379
5.883481562,0.51506412,0.714031637,0.82784456
5.893481562,0.461238146,0.668426216,0.696351469
5.903481562,0.405178189,0.578506827,0.569291472
5.913481562,0.367374361,0.448375076,0.448636889
5.923483125,0.353900403,0.316777259,0.331246048
5.933483125,0.361073703,0.219230801,0.209788576
5.943481562,0.365751207,0.16053538,0.082292274
5.953481562,0.358385921,0.10644763,-0.040701076
5.963481562,0.344545454,0.034540065,-0.157254159
5.973481562,0.336185306,-0.0591143,-0.260996521
5.983481562,0.339100033,-0.1497318,-0.355418861
5.993483125,0.347058713,-0.219562426,-0.443296164
6.003481562,0.350985706,-0.288764715,-0.516268373
6.013481562,0.339361817,-0.354825437,-0.582206905
6.023481562,0.303198606,-0.405771583,-0.654899895
6.033481562,0.234816596,-0.464292496,-0.732427418
6.043481562,0.154740885,-0.547352731,-0.803985894
6.053481562,0.052918382,-0.672981501,-0.87505573
6.063483125,-0.042306781,-0.846816301,-0.929370344
6.073483125,-0.108070783,-1.050042391,-0.971013904
6.083483125,-0.120759331,-1.204556465,-1.006618619
6.093481562,-0.089273594,-1.276551247,-1.038750172
6.103481562,-0.044470988,-1.28501606,-1.068630219
6.113481562,-0.023038346,-1.272763848,-1.103885889
6.123481562,-0.039147735,-1.271629453,-1.154901862
6.133483125,-0.09927433,-1.288087845,-1.212148666
6.143483125,-0.178459913,-1.329347491,-1.265957117
6.153483125,-0.245515466,-1.376122355,-1.314459801
6.163481562,-0.294210166,-1.404099941,-1.365807414
6.173481562,-0.355820268,-1.416805863,-1.432828069
6.183481562,-0.434988409,-1.417713523,-1.501419425
6.193481562,-0.508170068,-1.391097188,-1.576451182
6.203481562,-0.558470428,-1.319870353,-1.652565002
6.213483125,-0.58243382,-1.213265657,-1.7338624
6.223483125,-0.593185067,-1.104601383,-1.820640206
6.233481562,-0.590933561,-1.033234954,-1.889598131
6.243481562,-0.560407758,-1.024787545,-1.925447226
6.253481562,-0.497698098,-1.09919095,-1.920001745
6.263481562,-0.412246764,-1.217873335,-1.899790883
6.273481562,-0.322292507,-1.303237319,-1.884117842
6.283483125,-0.263038576,-1.301526904,-1.902880073
6.293481562,-0.287700087,-1.181081772,-1.95548439
6.303481562,-0.394653857,-0.997089148,-2.004859686
6.313481562,-0.553042471,-0.777875781,-2.023779154
6.323481562,-0.70279175,-0.562606871,-1.993707061
6.333481562,-0.819693863,-0.395107627,-1.911868572
6.343481562,-0.886330545,-0.311104923,-1.791720152
6.35348625,-0.887848973,-0.349659264,-1.639160872
6.363481562,-0.831771553,-0.480052799,-1.467804432
6.373481562,-0.726720214,-0.693977833,-1.308298826
6.383481562,-0.615525246,-0.95083791,-1.188080549
6.393481562,-0.523005366,-1.184240818,-1.088404775
6.403481562,-0.42872268,-1.336852431,-0.955934286
6.413481562,-0.318103701,-1.40982461,-0.777404547
6.423483125,-0.232844368,-1.416072845,-0.590148151
6.433481562,-0.204814389,-1.358703852,-0.428844839
6.443481562,-0.242949829,-1.282642484,-0.286827415
6.453481562,-0.32882002,-1.193770289,-0.153414443
6.463481562,-0.433487415,-1.069101453,-0.022270402
6.473481562,-0.533006072,-0.938114464,0.114772849
6.483481562,-0.609835505,-0.812450767,0.248726875
6.493483125,-0.636975348,-0.651793182,0.360270858
6.503481562,-0.613622844,-0.471902132,0.434569538
6.513481562,-0.560878992,-0.294908285,0.457642794
6.52348,-0.503335476,-0.116535634,0.455426216
6.533481562,-0.468027502,0.033824481,0.467660964
6.543481562,-0.488186032,0.158353716,0.502078891
6.553481562,-0.570042014,0.289846838,0.581386626
6.563483125,-0.666977584,0.373517901,0.721239865
6.573483125,-0.752865195,0.412072241,0.951658249
6.583483125,-0.768625557,0.418372869,1.228886366
6.593481562,-0.694466531,0.431480289,1.495677352
6.603481562,-0.55101788,0.485009551,1.688867807
6.613481562,-0.406731516,0.550057948,1.779223561
6.623481562,-0.330966771,0.584947109,1.775087118
6.633483125,-0.352870673,0.574492574,1.730389237
6.643483125,-0.432510048,0.487784624,1.70689714
6.653483125,-0.485410959,0.356832564,1.744997621
6.663481562,-0.433155805,0.281626314,1.857868075
6.673481562,-0.27328366,0.255568564,1.995836377
6.683481562,-0.039409533,0.271643043,2.097344637
6.693481562,0.19922933,0.42018801,2.13719058
6.703481562,0.340915173,0.665895462,2.079891443
6.713483125,0.319971204,0.878249705,1.940352321
6.723483125,0.159802347,1.019010425,1.80997622
6.733481562,-0.031398471,1.09135437,1.768070936
6.743481562,-0.146956727,1.138129234,1.821687341
6.753481562,-0.126326934,1.188935757,1.928257227
6.763481562,0.012391837,1.248957634,2.043728113
6.773481562,0.221883714,1.30707705,2.110364914
6.783483125,0.409558952,1.343310118,2.082509518
6.793508125,0.506808698,1.30786252,1.972448945
6.803481562,0.496266931,1.160364747,1.838250518
6.813481562,0.439124852,0.91566956,1.74684763
6.823481562,0.423521608,0.725376308,1.724332929
6.833481562,0.486999214,0.639907539,1.734159112
6.843481562,0.606711328,0.616851687,1.745032549
6.853483125,0.725725353,0.662666619,1.707403183
6.863483125,0.788068533,0.787579834,1.603713274
6.873481562,0.74307394,0.955916822,1.426283002
6.883481562,0.586081564,1.118546605,1.191291928
6.893481562,0.340443909,1.249812841,0.948080301
6.903481562,0.04787438,1.296325803,0.750299573
6.913481562,-0.224309713,1.206301808,0.644043922
6.923483125,-0.397097319,1.012151361,0.64704591
6.933483125,-0.431515217,0.781436265,0.719878495
6.943481562,-0.337668836,0.590532124,0.790389776
6.953484687,-0.16612044,0.452528954,0.801263213
6.963481562,0.007120943,0.344702512,0.727627754
6.973481562,0.115907319,0.276669592,0.580636144
6.983481562,0.131004408,0.238656327,0.408337235
6.993483125,0.063128561,0.221848801,0.259774804
7.003483125,-0.055012777,0.202405825,0.158982038
7.013481562,-0.180484504,0.164828897,0.115156822
7.023481562,-0.283581108,0.118298419,0.117373392
7.033481562,-0.354581088,0.082065381,0.145700082
7.043481562,-0.391355187,0.06075491,0.171059713
7.053481562,-0.405405074,0.054977871,0.169907808
7.063483125,-0.417622387,0.063617252,0.14552556
7.073483125,-0.439927697,0.080442227,0.101106927
7.083483125,-0.467783153,0.089675017,0.049706977
7.093481562,-0.487889349,0.078853972,0.009180432
7.103481562,-0.472792238,0.05375614,-0.013002703
7.113481562,-0.417290777,-0.00296706,-0.014381513
7.123481562,-0.328750223,-0.106465086,-0.002094395
7.133483125,-0.23404865,-0.234188274,0.015341444
7.143483125,-0.170518667,-0.353830606,0.026127579
7.153483125,-0.141301855,-0.452057719,0.027209682
7.163481562,-0.135961145,-0.506232738,0.013177236
7.173481562,-0.144757614,-0.50652945,-0.019530235
7.183481562,-0.157673046,-0.45977208,-0.058503438
7.193481562,-0.16941911,-0.385438502,-0.084753186
7.203481562,-0.181042999,-0.312518656,-0.09227556
7.213483125,-0.212179676,-0.24780184,-0.09738937
7.223481562,-0.268309474,-0.177255645,-0.099536128
7.233481562,-0.330827147,-0.110950582,-0.100024819
7.243481562,-0.373866975,-0.057543505,-0.098576196
7.253481562,-0.395282179,-0.017139133,-0.103637651
7.263481562,-0.391407549,-0.003281219,-0.11229448
7.273481562,-0.363395005,-0.010803588,-0.123098075
7.283483125,-0.306026042,-0.022148227,-0.127112329
7.293481562,-0.222616747,-0.033702306,-0.121684358
7.303481562,-0.130515724,-0.029408798,-0.111299649
7.313481562,-0.05948082,-0.019425515,-0.098768182
7.323481562,-0.023387412,-0.018517943,-0.079778999
7.333481562,-0.012740904,-0.023701571,-0.066462137
7.343481562,-0.023457225,-0.035552356,-0.068539083
7.353483125,-0.04399975,-0.044715334,-0.087231554
7.363483125,-0.060318578,-0.049427725,-0.116238929
7.373481562,-0.068626344,-0.033143803,-0.150150672
7.383481562,-0.082170099,0.00127409,-0.189455494
7.393481562,-0.104527771,0.039741147,-0.219684586
7.403481562,-0.116675258,0.076881751,-0.235235482
7.413481562,-0.114319064,0.096394531,-0.234711871
7.423483125,-0.093724184,0.089832097,-0.223803565
7.433483125,-0.053878315,0.066968285,-0.215146735
7.443481562,-0.01319469,0.035534903,-0.216106668
7.453481562,0.006859144,0.015411257,-0.229336262
7.463481562,0.01425934,0.019198623,-0.245777264
7.473481562,0.017086774,0.028064894,-0.262549877
7.483481562,0.019896753,0.038938295,-0.281696141
7.493483125,0.029408798,0.03939208,-0.296967775
7.503481562,0.042568579,0.032742377,-0.305519879
7.513481562,0.059236474,0.017889624,-0.303547651
7.523481562,0.068207465,0.007906342,-0.297020137
7.533481562,0.058555797,0.006213372,-0.284715563
7.543481562,0.05490806,0.00736529,-0.266284883
7.553481562,0.071593404,0.01870993,-0.260507852
7.563483125,0.091402896,0.020420352,-0.270909995
7.573483125,0.118664935,-0.001117011,-0.291592151
7.583483125,0.152995557,-0.037262779,-0.30696851
7.593481562,0.195651412,-0.082990408,-0.30832985
7.603481562,0.227468759,-0.111631259,-0.298468769
7.613481562,0.257680416,-0.124546692,-0.284698099
7.623481562,0.268082559,-0.114493601,-0.28330183
7.633481562,0.254259557,-0.096726149,-0.297037572
7.643483125,0.221150666,-0.077562429,-0.321891069
7.653483125,0.182683617,-0.051434852,-0.340792984
7.663481562,0.158563167,-0.034714598,-0.348943681
7.673481562,0.154391825,-0.023143066,-0.346011519
7.683481562,0.168127567,-0.019896753,-0.330704987
7.693481562,0.195843399,-0.026354471,-0.307806253
7.703481562,0.220504895,-0.040561453,-0.294018179
7.713483125,0.237190247,-0.046827182,-0.292778969
7.723483125,0.236614287,-0.04012512,-0.301488161
7.733481562,0.222128049,-0.024190264,-0.307212859
7.743481562,0.202702537,-0.004572763,-0.302203745
7.753481562,0.182456717,0.008133234,-0.277751684
7.763481562,0.170797914,0.025359634,-0.231919348
7.773481562,0.176976383,0.052220251,-0.182631254
7.783483125,0.188792259,0.083374381,-0.144425988
7.793483125,0.197187304,0.109379783,-0.126082584
7.803481562,0.191689506,0.124983028,-0.129451066
7.813481562,0.170536116,0.127985001,-0.143413708
7.823481562,0.140917882,0.096586518,-0.156241879
7.833481562,0.108472213,0.040509094,-0.157166898
7.843481562,0.082292274,-0.022183135,-0.143029734
7.853483125,0.07326892,-0.063529983,-0.120410264
7.863483125,0.079395026,-0.068731062,-0.097529002
7.873481562,0.088051863,-0.056862827,-0.075206235
7.883481562,0.083514005,-0.036075957,-0.060894538
7.893481562,0.070458941,-0.016982054,-0.043825217
7.903481562,0.046670105,-0.001832596,-0.026860617
7.913481562,0.015236724,0.006579891,-0.010402163
7.923483125,-0.013543755,0.005864306,0.008028515
7.933483125,-0.024539329,-0.001640609,0.032498032
7.943481562,-0.011205014,-0.012077678,0.057840209
7.953481562,0.018849555,-0.014294246,0.073757611
7.963481562,0.058852501,-0.006248279,0.076445423
7.973481562,0.081821032,0.000541052,0.071069807
7.983481562,0.07860963,0.010018189,0.062692225
7.993483125,0.054279741,0.003176499,0.063913956
8.003483125,0.019652408,-0.017802358,0.073373638
8.013481562,-0.006736971,-0.048293259,0.085660763
8.023481562,-0.013107423,-0.071541049,0.097598813
8.033481562,0.002303835,-0.078871429,0.104265966
8.043481562,0.026633725,-0.076131262,0.101909772
8.053481562,0.048520152,-0.066741392,0.092345372
8.063483125,0.062447879,-0.04712389,0.080529489
8.073483125,0.063442715,-0.021170843,0.075991638
8.083483125,0.061261058,0.010000736,0.078504913
8.093481562,0.057473693,0.052499503,0.078714348
8.103481562,0.04696681,0.083723441,0.06866125
8.113481562,0.034191001,0.105732046,0.048345622
8.123481562,0.025010569,0.110077918,0.027593656
8.133481562,0.014067354,0.124651417,0.00577704
8.143483125,0.002548181,0.125506625,-0.007749262
8.153483125,-0.002617994,0.114685588,-0.01584759
8.163481562,-0.001099557,0.112748273,-0.021170843
8.173481562,0.001082104,0.11047934,-0.019757127
8.183481562,0.002530727,0.127862826,-0.021834068
8.193481562,-0.003455752,0.146572754,-0.033649947
8.203481562,-0.013840461,0.178128302,-0.057892572
8.213483125,-0.020891592,0.176627323,-0.095085539
8.223483125,-0.022130774,0.168912962,-0.130986959
8.233481562,-0.0143117,0.164095849,-0.165404856
8.24348,0.00429351,0.173677713,-0.18067649
8.253481562,0.020507619,0.17181021,-0.163432628
8.263481562,0.034330625,0.124791041,-0.120462626
8.273481562,0.046565384,0.082571529,-0.066828653
8.283483125,0.073199108,0.080616757,-0.011344641
8.293483125,0.132732287,0.163188279,0.026686084
8.303481562,0.19444713,0.311611086,0.043825217
8.313481562,0.203610107,0.427937269,0.072692961
8.323481562,0.196454257,0.421008319,0.038065631
8.333481562,0.183678448,0.462442428,-0.059306286
8.343481562,0.185353965,0.461552322,-0.077981308
8.353483125,0.183032677,0.426104695,-0.043336526
8.363483125,0.155578643,0.405492336,0.009232792
8.373481562,0.12686798,0.374826908,0.052569319
8.383481562,0.117792271,0.355366498,0.076515235
8.393481562,0.141389117,0.298521101,0.065694191
8.403481562,0.22176154,0.215233997,0.050649453
8.413481562,0.316323459,0.214797676,0.075398222
8.423483125,0.380830854,0.232128784,0.095329881
8.433483125,0.437868208,0.218148708,0.116430916
8.443481562,0.474659741,0.221778989,0.108018428
8.453481562,0.479023069,0.242077172,0.07862708
8.463481562,0.453087479,0.22483331,0.065746553
8.473481562,0.398301601,0.199962378,0.05742133
8.483481562,0.324177444,0.173538089,0.061889376
8.493483125,0.252514243,0.121946156,0.077771872
8.503481562,0.184760556,0.075118974,0.097075209
8.513481562,0.116937056,0.046774823,0.105278261
8.523481562,0.053249996,0.030386182,0.107267939
8.533481562,0.001692969,0.004258603,0.108315133
8.543481562,-0.027646014,-0.030229103,0.11690215
8.553481562,-0.025534166,-0.036826447,0.116762526
8.563483125,-0.006405358,-0.033423055,0.105260804
8.573483125,0.001954769,-0.038240165,0.085014984
8.583483125,-0.014957472,-0.035953782,0.060004421
8.593481562,-0.065502204,-0.021101031,0.038449604
8.603481562,-0.130445912,-0.000628319,0.025900686
8.613481562,-0.185895011,0.012566371,0.022113321
8.623481562,-0.219073728,0.010122909,0.02755875
8.633481562,-0.215775058,-0.006387905,0.042603485
8.643483125,-0.198094875,-0.011798426,0.053145275
8.653483125,-0.176330611,-0.028972466,0.06169739
8.663481562,-0.16257742,-0.061191242,0.063128561
8.673481562,-0.163991138,-0.065100782,0.053232543
8.683481562,-0.164881259,-0.061226148,0.040526547
8.693481562,-0.152751222,-0.050405107,0.031346112
8.703481562,-0.115924768,-0.042743113,0.018640116
8.713483125,-0.055693455,-0.056688294,0.001413717
8.723483125,0.013159783,-0.093898714,-0.021013765
8.733481562,0.076672316,-0.164828897,-0.036564648
8.743481562,0.126780719,-0.255184591,-0.036145769
8.753481562,0.157254159,-0.33541736,-0.028396508
8.763481562,0.175248504,-0.388580114,-0.018099064
8.773481562,0.196663693,-0.404654592,-0.018971728
8.783483125,0.230453268,-0.408756107,-0.037873644
8.793483125,0.28012535,-0.422928184,-0.068608895
8.803481562,0.335766435,-0.419769138,-0.107110858
8.813481562,0.392350018,-0.37376225,-0.155124858
8.823481562,0.438513964,-0.291016191,-0.208654106
8.833481562,0.46158722,-0.209806025,-0.256353974
8.843481562,0.463664174,-0.128142074,-0.284925014
8.853483125,0.448985934,-0.058817595,-0.286862314
8.863483125,0.427588224,-0.017959438,-0.252985477
8.873481562,0.420537084,-0.008656833,-0.183608636
8.883481562,0.437047899,-0.020228365,-0.102625363
8.893481562,0.472547889,-0.038798667,-0.035203289
8.903481562,0.502724648,-0.053459436,-0.005288348
8.913481562,0.516390562,-0.069795713,-0.016702801
8.923483125,0.497349024,-0.097267196,-0.069202304
8.933483125,0.467748225,-0.130341187,-0.137689024
8.943481562,0.45032984,-0.187710166,-0.190712124
8.953481562,0.460505128,-0.261101246,-0.214553326
8.963481562,0.517629743,-0.313478589,-0.225688532
8.973481562,0.602173507,-0.35281831,-0.250175506
8.983481562,0.682528436,-0.374739647,-0.296583802
8.993483125,0.721239865,-0.373203754,-0.366100252
9.003481562,0.699510515,-0.369538575,-0.440381467
9.013483125,0.623728335,-0.381057739,-0.50368458
9.023481562,0.522865713,-0.384164423,-0.559081316
9.033481562,0.433155805,-0.367426723,-0.619888604
9.043481562,0.375175983,-0.348646969,-0.701081276
9.053481562,0.352765948,-0.350898445,-0.790808678
9.063483125,0.358211368,-0.359276026,-0.86437428
9.073483125,0.374652386,-0.364005864,-0.906907976
9.083483125,0.378753901,-0.365018159,-0.923261702
9.093481562,0.349746525,-0.373622626,-0.922650874
9.103481562,0.29480356,-0.382855415,-0.909822702
9.113481562,0.240349293,-0.379155338,-0.898704946
9.123481562,0.210416898,-0.365943193,-0.89839077
9.133481562,0.211149931,-0.369154602,-0.914116204
9.143483125,0.236387387,-0.377008557,-0.949895442
9.153525312,0.272847325,-0.370673031,-0.997630179
9.163481562,0.30923745,-0.357635409,-1.042991281
9.173481562,0.344685078,-0.383239388,-1.084966421
9.183481562,0.371475875,-0.448828876,-1.111792207
9.193481562,0.397969961,-0.506634176,-1.115719199
9.203481562,0.421182841,-0.523179889,-1.126714706
9.213483125,0.418879032,-0.503492594,-1.185602188
9.223483125,0.375717014,-0.444483012,-1.29376018
9.233481562,0.288939267,-0.357286364,-1.417242289
9.243481562,0.170413941,-0.276006371,-1.511071205
9.253481562,0.042568579,-0.211830616,-1.554076076
9.263481562,-0.059201568,-0.143710405,-1.555053473
9.273481562,-0.115872405,-0.077283181,-1.543324828
9.283481562,-0.129346356,-0.051679198,-1.531316996
9.293481562,-0.115697876,-0.044226643,-1.530898094
9.303481562,-0.090512775,-0.049061205,-1.544110179
9.313481562,-0.085102253,-0.051487211,-1.569487333
9.323481562,-0.102660269,-0.054367006,-1.590762854
9.333481562,-0.131667644,-0.064507365,-1.600082994
9.343481562,-0.182823241,-0.072832592,-1.599978209
9.353483125,-0.248779237,-0.09524262,-1.581477761
9.363481562,-0.311122388,-0.091821775,-1.548386335
9.373481562,-0.353551358,-0.077213369,-1.517371774
9.383481562,-0.402019143,-0.049131017,-1.507807374
9.393481562,-0.488744557,-0.009529497,-1.525819182
9.403481562,-0.619731486,0.025918139,-1.552068949
9.413481562,-0.764087677,0.054681167,-1.553796768
9.423483125,-0.867742777,0.077283181,-1.502065301
9.433483125,-0.909578323,0.11081095,-1.360344529
9.443481562,-0.858579814,0.137863562,-1.147239804
9.453481562,-0.726545632,0.164776534,-0.888128221
9.463481562,-0.5497787,0.197937787,-0.616240859
9.473481562,-0.36646679,0.230540544,-0.345557749
9.483481562,-0.204203516,0.242722943,-0.080965824
9.493483125,-0.070424035,0.250507116,0.191619694
9.503489375,0.028274333,0.259024322,0.475514948
9.513481562,0.089919366,0.265935808,0.766129732
9.523481562,0.114633225,0.277263016,1.043322921
9.533481562,0.106587254,0.320913702,1.284667015
9.543481562,0.069080129,0.377270371,1.47192347
9.553481562,0.007330383,0.425109833,1.624622226
9.563483125,-0.069760807,0.4613778,1.755364895
9.573483125,-0.154042765,0.442440957,1.895130873
9.583483125,-0.222215325,0.40105921,2.056818247
9.593481562,-0.259949327,0.376432598,2.23094964
9.603481562,-0.262305528,0.352312148,2.391240597
9.613481562,-0.233594865,0.355837733,2.517899275
9.623481562,-0.212965071,0.36568138,2.597905159
9.633481562,-0.236352488,0.333253175,2.663354874
9.643483125,-0.27056095,0.297334284,2.75376296
9.653483125,-0.282464087,0.315555513,2.870193958
9.663481562,-0.272463351,0.391302824,2.993065119
9.673481562,-0.255219489,0.52145201,3.080471277
9.683481562,-0.274121404,0.668600738,3.090000629
9.693481562,-0.355820268,0.782588184,3.019681454
9.703481562,-0.465549111,0.807075143,2.917422533
9.713483125,-0.559133649,0.775100708,2.830400467
9.723483125,-0.620255113,0.731711805,2.784044504
9.733481562,-0.633292735,0.708498955,2.775335312
9.743481562,-0.591928422,0.755448282,2.760569811
9.753481562,-0.532412708,0.846921027,2.716762066
9.763481562,-0.478342384,0.915180862,2.65340662
9.773481562,-0.43861869,0.948097765,2.577153206
9.783483125,-0.441864997,0.927555203,2.482451677
9.793483125,-0.490315348,0.849451721,2.379163027
9.803481562,-0.538067579,0.770231247,2.266309977
9.813481562,-0.554979801,0.721780896,2.133752346
9.823481562,-0.540842652,0.690382421,1.983130336
9.833481562,-0.487924248,0.704798877,1.805246353
9.843481562,-0.415091664,0.729774535,1.605563283
9.853483125,-0.358612806,0.713193893,1.413070917
9.863481562,-0.316759795,0.667954981,1.260022998
9.873481562,-0.26590091,0.632280409,1.147047877
9.883481562,-0.21617648,0.619591892,1.053602934
9.893481562,-0.189595118,0.59711206,0.960524499
9.903481562,-0.175684839,0.540266693,0.85163343
9.913481562,-0.171443686,0.448933601,0.733143032
9.923483125,-0.163310453,0.342381239,0.609660983
9.933483125,-0.135071024,0.251240134,0.478970706
9.943481562,-0.085922562,0.212458923,0.34440583
9.953481562,-0.020245818,0.212895259,0.178861335
9.963481562,0.030054569,0.215460896,-0.001518436
9.973481562,0.039112829,0.181234986,-0.182788327
9.983481562,0.005585053,0.101333819,-0.333986193
9.993483125,-0.03700098,-0.002164208,-0.44237116
10.00348313,-0.06956882,-0.12430235,-0.520177901
10.01348313,-0.077457711,-0.24712117,-0.605210364
10.02348156,-0.061383229,-0.35760051,-0.721414387
10.03348156,-0.041870449,-0.459562629,-0.866939962
10.04348156,-0.033789575,-0.562589407,-1.02616632
10.05348156,-0.04935791,-0.655755103,-1.175479293
10.06348313,-0.075066611,-0.710698068,-1.298437715
10.07348313,-0.109414689,-0.727453232,-1.395635128
10.08348313,-0.157585785,-0.712268889,-1.474646091
10.09348156,-0.216159031,-0.673923969,-1.541300297
10.10348156,-0.267454267,-0.637062609,-1.602124929
10.11348156,-0.297264487,-0.636504114,-1.659022689
10.12348156,-0.298241854,-0.678706169,-1.711068392
10.13348156,-0.269810438,-0.768817544,-1.758401752
10.14348313,-0.226700813,-0.883049309,-1.808527589
10.15348313,-0.201742604,-0.98543036,-1.865966439
10.16348156,-0.221569553,-1.04620266,-1.93911314
10.17348156,-0.297508836,-1.066082001,-2.02351737
10.18348156,-0.411461383,-1.044858813,-2.103837252
10.19348156,-0.541470945,-1.006304502,-2.172463655
10.20348156,-0.666122377,-1.009899855,-2.223427296
10.21348156,-0.786724627,-1.058350205,-2.259433508
10.22348156,-0.896488369,-1.134708405,-2.291180849
10.23348156,-1.003005862,-1.24461174,-2.322212934
10.24348156,-1.085874081,-1.356714249,-2.333191156
10.25348156,-1.106835485,-1.433264375,-2.304131269
10.26348156,-1.052328825,-1.443561792,-2.221978664
10.27348156,-0.926577866,-1.436109304,-2.092475176
10.28348313,-0.735778451,-1.434311628,-1.923213243
10.29348156,-0.496406555,-1.38991034,-1.743583918
10.30348156,-0.253875583,-1.295732379,-1.597028613
10.31348156,-0.083269656,-1.152964473,-1.510704637
10.32348156,-0.032916911,-0.982620358,-1.474977732
10.33348156,-0.095766217,-0.85138905,-1.458344817
10.34348156,-0.240419105,-0.744609833,-1.434346437
10.35348313,-0.404532403,-0.652508795,-1.373678803
10.36348313,-0.527508318,-0.584720194,-1.276324391
10.37348156,-0.570740104,-0.541889846,-1.155809402
10.38348156,-0.527403593,-0.519427419,-1.041996479
10.39348156,-0.427012265,-0.501625061,-0.960332513
10.40348156,-0.318889111,-0.484747738,-0.920015395
10.41348156,-0.216944426,-0.466247261,-0.898670018
10.42348313,-0.124843404,-0.423835754,-0.874951005
10.43348313,-0.056618482,-0.373343378,-0.846554518
10.44348156,-0.022183135,-0.322519392,-0.805294931
10.45348156,-0.012688544,-0.268326908,-0.75890404
10.46348156,-0.031171581,-0.216473192,-0.713176429
10.47348156,-0.077928953,-0.152402148,-0.652648389
10.48348156,-0.123045713,-0.082955502,-0.577093124
10.49348313,-0.142715573,-0.013159783,-0.483299136
10.50348313,-0.128787845,0.053302355,-0.37672931
10.51348156,-0.083932884,0.114441238,-0.263684332
10.52348156,-0.013945181,0.164165676,-0.148405343
10.53348156,0.072640605,0.202859625,-0.038624138
10.54348156,0.162978843,0.229406074,0.05742133
10.55348156,0.234135911,0.237923279,0.140638635
10.56348156,0.279636651,0.241448849,0.212511286
10.57348313,0.303268403,0.253090203,0.276023835
10.58348313,0.318749487,0.282760799,0.327301592
10.59348156,0.334021121,0.318906546,0.369695634
10.60348156,0.359572738,0.357687771,0.404776752
10.61348156,0.395177454,0.384740382,0.441149414
10.62348156,0.442947119,0.387236208,0.486719966
10.63348156,0.492182851,0.381703496,0.545467734
10.64348313,0.534803808,0.362295449,0.607269883
10.65348313,0.569308937,0.348071009,0.660083532
10.66348156,0.599852204,0.351107895,0.693122625
10.67348156,0.62634629,0.406242847,0.689213037
10.68348156,0.643118918,0.475846559,0.654707909
10.69348156,0.654812634,0.537125051,0.604808927
10.70348156,0.662108123,0.583428681,0.556777477
10.71348313,0.663469434,0.598578095,0.539079845
10.72348313,0.665441692,0.596029937,0.553059936
10.73348156,0.672964036,0.611720443,0.589642048
10.74348156,0.672754586,0.651618659,0.622750938
10.75348156,0.66617471,0.671131432,0.611702979
10.76348156,0.667152107,0.662247717,0.553059936
10.77348156,0.675669312,0.649367213,0.459213585
10.78348313,0.677013218,0.631826639,0.347844124
10.79348313,0.666995049,0.596448839,0.238499239
10.80348156,0.652630985,0.538486421,0.140080124
10.81348156,0.627655327,0.462878764,0.060266219
10.82348156,0.59665823,0.397638351,-0.004677482
10.83348156,0.564736187,0.382104933,-0.058782689
10.84348156,0.54796356,0.415650159,-0.095102988
10.85348313,0.555817544,0.483735442,-0.105086274
10.86348313,0.584388614,0.557842135,-0.084212139
10.87348156,0.628632665,0.616677165,-0.041277036
10.88348156,0.675791502,0.635805964,0.004276057
10.89348156,0.713193893,0.601353168,0.036686819
10.90348156,0.743614972,0.529131472,0.051993359
10.91348156,0.771679878,0.449335009,0.055693455
10.92348313,0.796114504,0.360078871,0.061645027
10.93348313,0.824388802,0.295815855,0.076375611
10.94348156,0.866102159,0.276041269,0.097424276
10.95348156,0.919736147,0.280195147,0.116465822
10.96348156,0.978204668,0.270037353,0.122696646
10.97348156,1.015100956,0.25691247,0.102625363
10.98348156,1.024194121,0.2486047,0.063128561
10.99348313,1.003005862,0.227486208,0.015132004
11.00348313,0.966528416,0.182456717,-0.009983283
11.01348313,0.93046993,0.109868474,0.009267698
11.02348156,0.910468459,0.036739182,0.071890108
11.03348156,0.895860076,-0.030717794,0.139835775
11.04348156,0.861791193,-0.070319317,0.168738425
11.05348156,0.784490585,-0.065589473,0.128944919
11.06348156,0.652596056,-0.021101031,0.018675024
11.07348313,0.47535786,0.041678462,-0.135472462
11.08348313,0.276687056,0.119729586,-0.290440232
11.09348156,0.092153385,0.19228293,-0.399086982
11.10348156,-0.04766494,0.249669343,-0.445041507
11.11348156,-0.144583076,0.249756619,-0.436768651
11.12348156,-0.208881006,0.186645508,-0.382139832
11.13348156,-0.248465076,0.100112088,-0.289916635
11.14348313,-0.264382482,0.025097834,-0.18135716
11.15348313,-0.255062401,-0.002164208,-0.077841684
11.16348156,-0.235881254,0.035796702,0.00567232
11.17348156,-0.225897968,0.129747778,0.058974676
11.18348156,-0.237207696,0.22959806,0.095452055
11.19348156,-0.254329383,0.315119207,0.136327669
11.20348156,-0.272969484,0.365978092,0.19764109
11.21348313,-0.291644514,0.362225622,0.292011023
11.22348313,-0.303634942,0.301819801,0.428897202
11.23348156,-0.305851489,0.204639852,0.607095301
11.24348156,-0.302814633,0.088139124,0.793095052
11.25348156,-0.296217293,-0.034016468,0.993179619
11.26348156,-0.284767926,-0.08932595,1.165443659
11.27348156,-0.28091073,-0.073530719,1.258766413
11.28348313,-0.306252927,-0.022200588,1.260930538
11.29348156,-0.36011377,0.074141584,1.178917527
11.30348156,-0.446333051,0.173014492,1.044684291
11.31348156,-0.568139553,0.234572247,0.922982454
11.32348156,-0.717661917,0.224571511,0.862803519
11.33348156,-0.874898672,0.156486213,0.902911186
11.34348156,-0.985674679,0.110095367,1.034753323
11.35348313,-1.014245749,0.182927951,1.173245192
11.36348313,-0.982306182,0.376851499,1.243163109
11.37348156,-0.931656778,0.648180366,1.202462077
11.38348156,-0.924012184,0.881373823,1.078438997
11.39348156,-0.985395432,0.973439932,0.964992523
11.40348156,-1.083430529,0.864234686,0.934012949
11.41348156,-1.168916821,0.607496738,1.011592865
11.42348313,-1.191082478,0.336569279,1.171604633
11.43348313,-1.136261702,0.157358885,1.341739297
11.44348313,-1.035556197,0.104929194,1.41996491
11.45348156,-0.943245709,0.109362334,1.377256751
11.46348156,-0.884585202,0.126728356,1.248084903
11.47348156,-0.833115458,0.124581605,1.070742011
11.48348156,-0.771435499,0.168075204,0.860709131
11.49348313,-0.714817047,0.257069558,0.631983697
11.50348313,-0.707486689,0.36534977,0.422072977
11.51348156,-0.778207421,0.480873108,0.231256127
11.52348156,-0.93376857,0.576325178,0.107407562
11.53348156,-1.149404049,0.602923989,0.100112088
11.54348156,-1.379071951,0.540266693,0.250576913
11.55348156,-1.540253043,0.422422051,0.542710125
11.56348156,-1.562156916,0.33224088,0.865840375
11.57348313,-1.424904227,0.266110361,1.083779693
11.58348313,-1.144935966,0.256301612,1.121827841
11.59348156,-0.763843358,0.334736705,0.994034827
11.60348156,-0.35908404,0.486056745,0.760946095
11.61348156,-0.052063171,0.586029172,0.487802058
11.62348156,0.075694926,0.610551059,0.272358626
11.63348156,0.05948082,0.574091136,0.185301602
11.64348313,-0.013648475,0.525361538,0.236561924
11.65348313,-0.079447389,0.488622367,0.364913434
11.66348156,-0.102660269,0.438374341,0.479197592
11.67348156,-0.077911496,0.379888356,0.507419586
11.68348156,-0.018675024,0.350566834,0.434220463
11.69348156,0.042935099,0.372959405,0.286251456
11.70348156,0.07236135,0.424027741,0.108943455
11.71348313,0.055100046,0.487697363,-0.057508599
11.72348313,0.014940019,0.561262965,-0.193173036
11.73348156,0.013735741,0.648442149,-0.287822247
11.74348156,0.056094881,0.757769585,-0.286583066
11.75348156,0.108768918,0.834249914,-0.260315865
11.76348156,0.216193929,0.838264167,-0.215809956
11.77348156,0.378055781,0.861895919,-0.156137154
11.78348313,0.531330585,0.891269803,-0.110461891
11.79350813,0.6567325,0.776270092,-0.065327674
11.80348156,0.731764197,0.637568772,-0.026563911
11.81348156,0.741991818,0.569029689,-0.008639379
11.82348156,0.717330337,0.557719946,0.000506145
11.83348156,0.692459404,0.593848288,0.009529497
11.84348156,0.692598999,0.690679133,0.014329153
11.85348313,0.727505565,0.828961551,0.000645772
11.86348313,0.789098263,1.010196567,-0.036913715
11.87348156,0.847496986,1.138460755,-0.104719758
11.88348156,0.858492553,1.191972613,-0.210381985
11.89348156,0.798906982,1.140485406,-0.341456205
11.90348156,0.663294911,1.011697531,-0.471535593
11.91348156,0.469406307,0.869313598,-0.581334293
11.92348313,0.2579422,0.792100251,-0.644148648
11.93348313,0.069411747,0.776723862,-0.659053802
11.94348313,-0.06627015,0.796847522,-0.640832543
11.95348156,-0.137165427,0.827984214,-0.619015932
11.96348156,-0.141808003,0.836187243,-0.602854192
11.97348156,-0.091786861,0.810129464,-0.588420331
11.98348156,-0.017313667,0.764890552,-0.566900373
11.99348313,0.067404613,0.722182333,-0.527124345
12.00348313,0.121649452,0.658704698,-0.471326172
12.01348313,0.127496302,0.574457645,-0.394147694
12.02348156,0.100112088,0.479825914,-0.29195869
12.03348156,0.051714107,0.376310438,-0.160570294
12.04348156,0.004677482,0.274784625,-0.026529005
12.05348156,-0.032864548,0.178861335,0.077579886
12.06348156,-0.052866023,0.084613562,0.147619948
12.07348313,-0.052394785,0.027663469,0.191340446
12.08348313,-0.040282197,0.005480334,0.202091679
12.09348156,-0.024434609,0.022060962,0.180781201
12.10348156,-0.00434587,0.078749254,0.134669602
12.11348156,0.020018926,0.146799639,0.077492617
12.12348156,0.043179445,0.195703775,0.017645279
12.13348156,0.052569319,0.216193929,-0.028815385
12.14348313,0.038589228,0.20422098,-0.052726395
12.15348156,0.00726057,0.167569056,-0.052621678
12.16348156,-0.028431414,0.127967536,-0.039584067
12.17348156,-0.04845034,0.096638881,-0.019058995
12.18348156,-0.040474184,0.084124871,-0.006824237
12.19348156,-0.006405358,0.108978361,-0.009477138
12.20348156,0.035918877,0.151267692,-0.017453292
12.21348313,0.072064646,0.191532433,-0.025324726
12.22348313,0.088732541,0.215129286,-0.03275983
12.23348156,0.078504913,0.213174507,-0.047490411
12.24348156,0.050213121,0.202318564,-0.064472459
12.25348156,0.019792033,0.196908042,-0.082082838
12.26348156,-0.003054326,0.191357896,-0.096918136
12.27348156,-0.019792033,0.189350769,-0.109711394
12.28348313,-0.022759093,0.187029481,-0.120235734
12.29348313,-0.021485003,0.176086262,-0.133063897
12.30348156,-0.018640116,0.152838483,-0.148806766
12.31348156,-0.024644049,0.125192463,-0.165911004
12.32348156,-0.033475414,0.108925998,-0.179751456
12.33348156,-0.037402406,0.103044242,-0.187465817
12.34348156,-0.037070792,0.108158052,-0.185423777
12.35348313,-0.039426986,0.116675258,-0.176644772
12.36348313,-0.038554322,0.131702542,-0.166190252
12.37348156,-0.032166418,0.154025301,-0.156154603
12.38348156,-0.023561945,0.170763016,-0.145036861
12.39348156,-0.017680185,0.176679686,-0.136659279
12.40348156,-0.01823869,0.165125594,-0.129084557
12.41348156,-0.024242623,0.135036126,-0.123342417
12.42348313,-0.036494836,0.098244585,-0.121440008
12.43348313,-0.053372167,0.073687799,-0.120480075
12.44348313,-0.065048419,0.069219761,-0.119781949
12.45348156,-0.063756876,0.068050385,-0.123132981
12.46348156,-0.04918338,0.066881016,-0.124564148
12.47348156,-0.028850293,0.053825952,-0.116081849
12.48348156,-0.01574287,0.031642821,-0.096900679
12.49348313,-0.0143117,-0.005462881,-0.065327674
12.50348156,-0.012793263,-0.050614547,-0.032044247
12.51348313,-0.009128072,-0.093340211,-0.011815879
12.52348156,-0.006056292,-0.111927964,-0.009215338
12.53348156,-0.009442232,-0.105749495,-0.019058995
12.54348156,-0.01733112,-0.080546945,-0.029304078
12.55348156,-0.031293754,-0.046513025,-0.03593633
12.56348156,-0.041573744,-0.016214108,-0.034941491
12.57348313,-0.048642326,-0.003490658,-0.028396508
12.58348469,-0.050719269,0.000174533,-0.027803095
12.59348156,-0.045134213,-0.002094395,-0.034033921
12.60348156,-0.035971235,-0.001308997,-0.04235914
12.61348156,-0.030927233,0.00122173,-0.046774823
12.62348156,-0.035028759,0.004206243,-0.042376593
12.63348156,-0.045640361,0.003281219,-0.026895523
12.64348313,-0.056862827,-0.000802851,-0.01298525
12.65348313,-0.058677968,-0.003438299,-0.008674286
12.66348156,-0.052063171,-0.00148353,-0.012566371
12.67348156,-0.039461896,0.011379546,-0.020909045
12.68348156,-0.030997047,0.016371189,-0.032899458
12.69348156,-0.031555552,0.015690509,-0.041137408
12.70348156,-0.035098571,0.005689773,-0.039584067
12.71348313,-0.044767696,-0.009599311,-0.027733281
12.72348156,-0.051609386,-0.020909045,-0.01436406
12.73348156,-0.053075463,-0.022287855,-0.000907571
12.74348156,-0.04569272,-0.014590953,0.015446164
12.75348156,-0.033580136,-0.002897247,0.020507619
12.76348156,-0.019006636,0.010210176,0.013299409
12.77348156,-0.010838495,0.014660765,0.003124139
12.78348313,-0.015044739,0.005375614,-0.008988446
12.79348313,-0.028431414,-0.0082205,-0.020943951
12.80348156,-0.037611846,-0.01574287,-0.024068091
12.81348156,-0.042865288,-0.015184364,-0.022671826
12.82348156,-0.040578905,-0.009058258,-0.0198793
12.83348156,-0.034365531,0.003630285,-0.018168878
12.84348156,-0.028029988,0.021886429,-0.015463617
12.85348313,-0.019861847,0.049672071,-0.010663962
12.86348313,-0.013857914,0.064105943,-0.005864306
12.87348156,-0.012025318,0.067509338,-0.004433136
12.88348156,-0.012007865,0.05836381,-0.004921828
12.89348156,-0.01563815,0.041119955,-0.006283185
12.90348156,-0.022392575,0.019198623,-0.006963864
12.91348156,-0.027070057,0.004415683,-0.005811946
12.92348313,-0.025080381,0.006195919,0.003543018
12.93348313,-0.013805554,0.024661502,0.015097098
12.94348313,-0.00010472,0.046530478,0.019687314
12.95348156,0.007661995,0.059498273,0.019861847
12.96348781,0.009197885,0.0596379,0.01823869
12.97348156,0.004974188,0.053092916,0.010576695
12.98348156,-0.003979351,0.033702306,0.000366519
12.99348313,-0.019390607,0.011082841,-0.007836528
13.00349094,-0.034749504,-0.001902409,-0.004276057
13.01348313,-0.042114794,-0.00429351,0.010925761
13.02348156,-0.035395276,0.008901179,0.0259705
13.03348156,-0.017697638,0.030246556,0.033161256
13.04348156,0.000907571,0.041207224,0.02963569
13.05348156,0.013404129,0.044488441,0.021868976
13.06348156,0.015899949,0.037699111,0.013561208
13.07348313,0.011292281,0.02724459,0.007888888
13.08348313,0.006003933,0.011746066,0.004555309
13.09348156,-0.004066617,-0.002583087,0.00418879
13.10348625,-0.012688544,-0.011990412,0.007522369
13.11348156,-0.01972222,-0.013404129,0.008621926
13.12348156,-0.040264744,-0.018186331,0.003944444
13.13348156,-0.072850041,-0.031433381,-0.002356194
13.14348313,-0.1097463,-0.053023104,-0.009145525
13.15348313,-0.13311626,-0.079639375,-0.019547688
13.16348156,-0.114947386,-0.109117985,-0.046565384
13.17348156,-0.040090214,-0.132749736,-0.096429437
13.18348156,0.057299159,-0.145682633,-0.155945167
13.19348156,0.111072756,-0.174096599,-0.192544729
13.20349094,0.113516212,-0.231483012,-0.195302337
