Time (s),Gyroscope x (rad/s),Gyroscope y (rad/s),Gyroscope z (rad/s)
0.213484688,-0.625019848,-1.179790258,-0.261328161
0.223483125,-0.653782904,-1.078683257,-0.281539053
0.233483125,-0.628231287,-0.925373554,-0.282603711
0.243483125,-0.552641034,-0.729477823,-0.264504641
0.253483125,-0.450434566,-0.553792953,-0.236841172
0.263483125,-0.345034152,-0.448410004,-0.213401407
0.273484688,-0.271363795,-0.418739378,-0.205268174
0.283544063,-0.169454023,-0.453890324,-0.202388376
0.293483125,-0.079953536,-0.568942428,-0.215967044
0.303483125,-0.003752458,-0.707539022,-0.229790047
0.313483125,0.049427725,-0.8296597,-0.223524317
0.323483125,0.077422805,-0.917606831,-0.189839467
0.333484688,0.073879786,-0.961676419,-0.134163454
0.343484688,0.035918877,-1.033374548,-0.06021386
0.353484688,-0.0259705,-1.147606373,0.011082841
0.363483125,-0.077056289,-1.198465228,0.056443948
0.373483125,-0.102503188,-1.14882803,0.068975411
0.38348625,-0.10751228,-1.084844351,0.047455501
0.393483125,-0.074961893,-1.010772467,0.00127409
0.403483125,-0.014398966,-0.908792913,-0.061924282
0.413484688,0.05893977,-0.788574636,-0.139783412
0.423484688,0.137462124,-0.644148648,-0.22300072
0.433489375,0.192003667,-0.486842126,-0.274069041
0.443483125,0.162961394,-0.503387868,-0.277821511
0.453483125,0.11657054,-0.677728772,-0.244450808
0.463483125,0.172421083,-0.654812634,-0.193103224
0.473483125,0.254870445,-0.56433475,-0.193644285
0.483487813,0.315939486,-0.512830079,-0.255359113
0.493484688,0.375053793,-0.371283889,-0.347879022
0.503484688,0.404078633,-0.264050871,-0.420938522
0.513483125,0.421566814,-0.224222451,-0.464414656
0.523483125,0.458358377,-0.081157811,-0.490472436
0.533483125,0.478726357,0.073286377,-0.527054548
0.543483125,0.472670078,0.149260551,-0.575993538
0.55348625,0.455618203,0.188146487,-0.627550602
0.563484688,0.430433095,0.196541533,-0.659891546
0.573484688,0.397097319,0.161565125,-0.668949783
0.583483125,0.376083553,0.118612573,-0.66708231
0.593483125,0.365716279,0.086481065,-0.674028695
0.603483125,0.356902391,0.050440013,-0.692354679
0.613483125,0.350776285,0.028797932,-0.713647664
0.623483125,0.345557749,0.015725417,-0.733073175
0.633484688,0.335679173,0.008691739,-0.748658955
0.643484688,0.319342881,-0.012496557,-0.748589158
0.653483125,0.296758324,-0.041678462,-0.737436533
0.663483125,0.273894519,-0.06257005,-0.72315973
0.673483125,0.250629276,-0.063128561,-0.714904308
0.683481563,0.235898703,-0.016790068,-0.71429342
0.693483125,0.229859859,0.035849061,-0.714834511
0.703484688,0.229702786,0.065310217,-0.70303607
0.713484688,0.231064141,0.077300631,-0.666733205
0.723483125,0.242862567,0.084439032,-0.602330565
0.733483125,0.270787835,0.10239847,-0.524017632
0.743483125,0.298800379,0.135821521,-0.452232271
0.753483125,0.319465071,0.161320776,-0.394706219
0.763483125,0.329326183,0.174707457,-0.353586257
0.773484688,0.329378545,0.184254408,-0.322397232
0.783484688,0.324177444,0.18193312,-0.292115748
0.793483125,0.31117475,0.146276042,-0.260420591
0.803483125,0.290562421,0.089605205,-0.226980075
0.813483125,0.269217044,0.046478119,-0.194290057
0.823483125,0.250507116,0.018727383,-0.169017687
0.833483125,0.230488181,0.013369222,-0.155159771
0.843484688,0.213959917,0.023893557,-0.150360107
0.853484688,0.198740646,0.036564648,-0.152716309
0.863483125,0.18455112,0.038205259,-0.153519154
0.873483125,0.168738425,0.015428711,-0.155386657
0.883483125,0.151930913,-0.025132742,-0.156660751
0.893483125,0.137811199,-0.07566002,-0.154566363
0.903483125,0.130079389,-0.12948598,-0.140481547
0.913484688,0.134355441,-0.165684104,-0.116204023
0.923484688,0.154112577,-0.165684104,-0.095521867
0.933484688,0.18364355,-0.128560945,-0.091839224
0.943483125,0.205320537,-0.088139124,-0.11491248
0.953483125,0.216281205,-0.050143309,-0.147899196
0.963483125,0.215076923,-0.034470253,-0.173398465
0.973483125,0.20195204,-0.052883476,-0.181828395
0.983484688,0.179158047,-0.082449354,-0.175388142
0.993484688,0.162228361,-0.0964818,-0.162263259
1.003484688,0.157847583,-0.097581357,-0.156730562
1.013483125,0.158807501,-0.080180429,-0.170117244
1.023483125,0.164165676,-0.042202063,-0.199299142
1.033483125,0.158632979,-0.007906342,-0.236719012
1.043483125,0.145734996,0.016720254,-0.267244816
1.053483125,0.12002629,0.015899949,-0.282830596
1.063484688,0.088802353,-0.0029147,-0.277123392
1.073484688,0.062779494,-0.007190756,-0.257191718
1.083483125,0.046652652,0.012112585,-0.240837976
1.093483125,0.029304078,0.039165188,-0.244642794
1.103483125,0.013753194,0.065292768,-0.267646253
1.113483125,0.005148721,0.098558739,-0.30288443
1.123483125,0.001448623,0.126379296,-0.337337226
1.133484688,-0.001396263,0.120357908,-0.34997341
1.143484688,-0.000820305,0.082431898,-0.335399926
1.153483125,0.00567232,0.041434117,-0.301592886
1.163483125,0.015149458,0.010279989,-0.266860843
1.173481563,0.005759587,-0.016912241,-0.241710648
1.183483125,-0.015620696,-0.04988151,-0.213663206
1.193483125,-0.048834313,-0.080162972,-0.172578156
1.203484688,-0.085224427,-0.119502693,-0.104719758
1.213484688,-0.115505889,-0.159191474,-0.006161012
1.223483125,-0.126885429,-0.182945415,0.109659038
1.233483125,-0.117757365,-0.196017921,0.220941231
1.243483125,-0.094247781,-0.19092156,0.313129514
1.253483125,-0.063390359,-0.16350244,0.376519889
1.263483125,-0.043615777,-0.126675993,0.420432359
1.273484688,-0.045640361,-0.083531454,0.458515435
1.283484688,-0.078120939,-0.050736722,0.497174501
1.293483125,-0.138334796,-0.028885199,0.538591146
1.303483125,-0.22949335,-0.008395034,0.59550631
1.313483125,-0.338681132,0.000698132,0.670119166
1.323483125,-0.448375076,0.007819075,0.776200294
1.333483125,-0.532168329,0.038205259,0.926228762
1.343484688,-0.578262508,0.08817403,1.118686199
1.353489375,-0.595837951,0.087440997,1.329504609
1.363483125,-0.589659512,0.056269415,1.527320147
1.373483125,-0.569797635,0.013247049,1.687681079
1.383483125,-0.565381944,-0.06478662,1.80622375
1.393483125,-0.572345793,-0.176330611,1.906056643
1.403483125,-0.580583751,-0.273091674,2.016850233
1.413484688,-0.578349769,-0.322519392,2.137050867
1.423483125,-0.54408896,-0.28763026,2.259991884
1.433484688,-0.487557739,-0.16999507,2.345006943
1.443483125,-0.447903842,-0.008639379,2.364467382
1.453489375,-0.45020768,0.139155105,2.336053371
1.463483125,-0.501764715,0.214954749,2.314167023
1.473483125,-0.585173965,0.220574707,2.339247227
1.483483125,-0.668932319,0.208409771,2.42291832
1.493484688,-0.74410367,0.182753429,2.526276827
1.503484688,-0.809134662,0.141720742,2.607172728
1.513483125,-0.850289524,0.084439032,2.64977622
1.523483125,-0.853273988,-0.009896017,2.667247057
1.533483125,-0.82021749,-0.138020635,2.673722267
1.543483125,-0.74661696,-0.254922777,2.671592951
1.553483125,-0.631756842,-0.289759547,2.659148693
1.563484688,-0.499844849,-0.229632974,2.611937523
1.573484688,-0.3839899,-0.09484119,2.518771887
1.583483125,-0.317929178,0.075258598,2.390647173
1.593483125,-0.315799862,0.246981546,2.248821735
1.603489375,-0.392472178,0.366204977,2.124606848
1.613483125,-0.540371358,0.530894279,1.998524189
1.623483125,-0.702931345,0.561385155,1.83900106
1.633484688,-0.813148916,0.491467267,1.651151299
1.643484688,-0.843063831,0.51530844,1.441537261
1.653483125,-0.803741574,0.566882968,1.218135118
1.663483125,-0.708917856,0.563392282,1.019010425
1.673483125,-0.574073672,0.503440201,0.880134642
1.683483125,-0.411915153,0.418512493,0.810338914
1.693483125,-0.237137884,0.330146492,0.790337443
1.703484688,-0.067299895,0.260455489,0.7838099
1.713484688,0.087755151,0.209840938,0.761644244
1.723483125,0.229458436,0.157620683,0.713717461
1.733483125,0.343323708,0.080704026,0.640308917
1.743483125,0.427291512,-0.016702801,0.555765212
1.753483125,0.477714062,-0.108489662,0.461726844
1.763483125,0.487540275,-0.172316357,0.35191074
1.773484688,0.44327873,-0.20662953,0.217485473
1.783484688,0.340129763,-0.245794713,0.05544911
1.793483125,0.187902153,-0.274540305,-0.120654613
1.803483125,0.016441001,-0.285448611,-0.298817813
1.813483125,-0.135105938,-0.279619187,-0.441585749
1.823483125,-0.270526022,-0.264679193,-0.571141541
1.833483125,-0.360393047,-0.262270629,-0.679142535
1.843484688,-0.40196678,-0.284226865,-0.777858317
1.853484688,-0.397236943,-0.305589706,-0.872228265
1.863483125,-0.351387143,-0.323758572,-0.960332513
1.873483125,-0.27192229,-0.337005615,-1.041490316
1.883483125,-0.176417887,-0.34782666,-1.119663596
1.893483125,-0.085119709,-0.378439754,-1.199582219
1.903483125,-0.009512044,-0.454937518,-1.278436184
1.913484688,0.044662975,-0.577930868,-1.352665067
1.923484688,0.080738932,-0.730106115,-1.423874497
1.933483125,0.09245009,-0.886993766,-1.493268847
1.943483125,0.079883717,-1.019795895,-1.566432953
1.953483125,0.040229838,-1.101721644,-1.644728422
1.963483125,-0.017558012,-1.115579605,-1.720650315
1.973483125,-0.077981308,-1.064668298,-1.783621788
1.983483125,-0.129381254,-0.992429137,-1.826033235
1.993484688,-0.166137889,-0.942198515,-1.844725728
2.003484688,-0.182037845,-0.937503576,-1.8470819
2.013483125,-0.182980314,-0.98064816,-1.851742029
2.023483125,-0.199700579,-1.056517601,-1.883332372
2.033483125,-0.257418603,-1.119855642,-1.955205083
2.043483125,-0.361946374,-1.140607595,-2.046538115
2.053483125,-0.504853964,-1.129193068,-2.130348921
2.063484688,-0.650972903,-1.086258054,-2.174156666
2.073484688,-0.750264704,-1.043375254,-2.160700083
2.083483125,-0.794630945,-1.023583293,-2.096594095
2.093483125,-0.757054031,-1.014612198,-1.993235826
2.103483125,-0.635125339,-1.00818944,-1.87722373
2.113483125,-0.453820497,-0.971729517,-1.775261641
2.123483125,-0.252845854,-0.887971163,-1.709235787
2.133484688,-0.090565138,-0.770789742,-1.686790943
2.143484688,-0.015934857,-0.673819244,-1.689321637
2.153483125,-0.035883971,-0.625491083,-1.678483129
2.163483125,-0.123604216,-0.609050095,-1.632999897
2.173483125,-0.240611091,-0.606781185,-1.557811022
2.183483125,-0.349432379,-0.61348325,-1.466303468
2.193481563,-0.411286831,-0.620743811,-1.364201665
2.203484688,-0.4002738,-0.651618659,-1.260214925
2.213484688,-0.334666878,-0.677257538,-1.176229715
2.223483125,-0.245236218,-0.65933305,-1.123485923
2.233483125,-0.163554803,-0.624059916,-1.082261205
2.243483125,-0.10644763,-0.594494045,-1.032571673
2.253483125,-0.074316122,-0.566202283,-0.966947317
2.263483125,-0.047542769,-0.530964077,-0.882194102
2.273484688,-0.013386675,-0.490088463,-0.78904587
2.283484688,0.032375857,-0.433225632,-0.705584228
2.293483125,0.077038832,-0.364075691,-0.641565561
2.303483125,0.106011301,-0.280893296,-0.591788769
2.313483125,0.115069561,-0.191305533,-0.543704987
2.323483125,0.103114054,-0.100740403,-0.488063872
2.333483125,0.076777034,-0.036494836,-0.43474406
2.343484688,0.039165188,-0.006859144,-0.370987177
2.353484688,0.008412487,-0.005375614,-0.289166152
2.363484688,0.002111848,-0.007016223,-0.188443199
2.373483125,0.026162485,-0.000593412,-0.060772363
2.383483125,0.086219266,-0.005951573,0.093846351
2.393483125,0.172508344,-0.009581857,0.265167862
2.403483125,0.272393525,-0.000785398,0.433504879
2.413484688,0.374634922,0.023666665,0.581386626
2.423484688,0.472617716,0.065240405,0.694065094
2.433484688,0.561507344,0.102189027,0.768660426
2.443483125,0.634252667,0.144740149,0.810687959
2.453483125,0.693209887,0.203732282,0.821648657
2.463483125,0.738169551,0.282708436,0.807860553
2.473483125,0.772028923,0.372540534,0.771156251
2.483483125,0.795032382,0.46352455,0.71635294
2.493484688,0.808768094,0.534576893,0.65990901
2.503484688,0.818157971,0.569762707,0.615333259
2.513483125,0.831736624,0.577773809,0.588559926
2.523483125,0.852348983,0.582660735,0.583760262
2.533483125,0.886906505,0.613622844,0.597059667
2.543483125,0.931744039,0.687886596,0.614286065
2.553483125,0.970909178,0.783548117,0.620482028
2.563484688,0.997577846,0.859347761,0.606816053
2.573484688,1.004000664,0.902282834,0.569815099
2.583483125,0.997193873,0.923558414,0.525396466
2.593483125,0.985639811,0.899944127,0.48834312
2.603483125,0.971973836,0.806743562,0.452947855
2.613483125,0.955724835,0.64852947,0.422195137
2.623483125,0.932372332,0.452197343,0.384670556
2.633484688,0.913994014,0.257348806,0.343742609
2.643484688,0.899839401,0.100129537,0.289078891
2.653483125,0.895144463,0.014940019,0.221098304
2.663483125,0.89736104,-0.013072516,0.139504164
2.673483125,0.893783092,-0.013386675,0.046268679
2.683483125,0.878075123,0.007120943,-0.051434852
2.693483125,0.84833473,0.047734756,-0.144565627
2.703484688,0.814457893,0.096359625,-0.222180411
2.713484688,0.782378733,0.152646497,-0.294279963
2.723483125,0.747594357,0.219562426,-0.368596077
2.733483125,0.72385788,0.279863536,-0.43985787
2.743483125,0.717958629,0.33599332,-0.510438979
2.753483125,0.736912906,0.380830854,-0.571228802
2.763483125,0.779533863,0.410414159,-0.618911207
2.773484688,0.845036089,0.432248235,-0.659088671
2.783484688,0.91022408,0.467783153,-0.718778968
2.793483125,0.930941164,0.497942448,-0.808227062
2.803483125,0.892282128,0.516477823,-0.905668795
2.813483125,0.807616174,0.539271832,-0.976267338
2.823483125,0.699789762,0.56194365,-0.994540989
2.833483125,0.597199321,0.574894011,-0.956335723
2.843484688,0.528590441,0.548556983,-0.871390522
2.853484688,0.499443412,0.502550125,-0.777928174
2.863484688,0.494573951,0.463210374,-0.683523297
2.873483125,0.509758294,0.441638112,-0.598281384
2.883483125,0.526094615,0.432265699,-0.535275042
2.893483125,0.526024759,0.428199083,-0.495376796
2.903483125,0.497418821,0.418198347,-0.463873595
2.913484688,0.443819761,0.379382223,-0.422090411
2.923484688,0.377776504,0.314176708,-0.358159006
2.933484688,0.309167624,0.232460409,-0.277018666
2.943483125,0.246300861,0.133762032,-0.182945415
2.953483125,0.197449103,0.03757694,-0.070406578
2.963483125,0.177604705,-0.043161992,0.047298424
2.973483125,0.181898221,-0.089203775,0.153623879
2.983483125,0.202021867,-0.092380278,0.240192205
2.993484688,0.228323966,-0.078470007,0.302832067
3.003484688,0.249931142,-0.069917887,0.347983748
3.013483125,0.252601504,-0.092537358,0.395997763
3.023483125,0.242461145,-0.125855699,0.466317058
3.033483125,0.227974907,-0.118403137,0.554072201
3.043483125,0.202667639,-0.06257005,0.635404587
3.053483125,0.161530226,0.004468043,0.691482008
3.063484688,0.102538094,0.109851025,0.715846777
3.073484688,0.023823744,0.253893048,0.721362054
3.083483125,-0.073199108,0.379870921,0.738954961
3.093483125,-0.186383709,0.434936047,0.774542212
3.103483125,-0.31686452,0.392838717,0.839206636
3.113483125,-0.439247012,0.286007106,0.927956641
3.123483125,-0.553792953,0.1425585,1.041577578
3.133484688,-0.631268144,0.026808258,1.147920489
3.143483125,-0.665459156,-0.006736971,1.235274196
3.153483125,-0.660799086,0.034330625,1.290653467
3.163483125,-0.639436305,0.125332087,1.319137335
3.173483125,-0.632734239,0.224344626,1.332017779
3.183483125,-0.65764004,0.292307734,1.360763431
3.193483125,-0.708708405,0.32848841,1.421483397
3.203484688,-0.778434277,0.337668836,1.522311091
3.213484688,-0.856345773,0.324264735,1.667121053
3.223483125,-0.925548077,0.279846102,1.839978456
3.233483125,-0.989549339,0.204290792,2.025018215
3.243483125,-1.023705363,0.119223438,2.227458954
3.253483125,-0.998869359,0.04642576,2.420946121
3.263483125,-0.924413621,0.035377823,2.55144453
3.273484688,-0.837845325,0.155212134,2.571760178
3.283484688,-0.783076882,0.415964305,2.465434551
3.293483125,-0.796446085,0.723753154,2.258805037
3.303483125,-0.905982971,0.950785577,2.020689726
3.313483125,-1.106276989,1.026916862,1.851899028
3.323483125,-1.367011666,0.832818747,1.839873672
3.333483125,-1.632284284,0.399732769,2.019485474
3.343484688,-1.826609254,-0.077928953,2.331672668
3.353484688,-1.922707081,-0.372819781,2.62780261
3.363484688,-1.941556573,-0.443016917,2.754391432
3.373483125,-1.922584891,-0.317737192,2.673512697
3.383483125,-1.892041564,0.038955748,2.386249065
3.393483125,-1.904224038,0.399680406,1.996464729
3.403483125,-2.010182858,0.439491361,1.714541674
3.413484688,-2.125915766,0.158702791,1.692393422
3.423484688,-2.155848026,-0.24085544,1.92419064
3.433484688,-2.076296091,-0.604145706,2.279801369
3.443483125,-1.899232388,-0.736284614,2.565546751
3.453483125,-1.649632812,-0.59904933,2.641276598
3.463483125,-1.383051276,-0.242722943,2.47046113
3.473483125,-1.181395888,0.165143058,2.125060558
3.483483125,-1.10058713,0.413381219,1.742449403
3.493483125,-1.117429614,0.446350515,1.44647646
3.503484688,-1.160364747,0.343009561,1.304319501
3.513483125,-1.146925688,0.214151904,1.281560302
3.523483125,-1.045312643,0.122155592,1.27454412
3.533483125,-0.878877997,0.129712865,1.169806957
3.543483125,-0.710610807,0.238359615,0.934658706
3.553483125,-0.586657524,0.38650316,0.627201498
3.563484688,-0.536217511,0.500682592,0.338436782
3.573484688,-0.541052043,0.546061158,0.15247196
3.583483125,-0.563776255,0.524785578,0.084404126
3.593483125,-0.569413662,0.479057968,0.086515971
3.603483125,-0.539289296,0.415946871,0.095783666
3.613483125,-0.469406307,0.32882002,0.080634214
3.623483125,-0.360969007,0.26305601,0.036651913
3.633484688,-0.243229076,0.242146984,-0.028483773
3.643484688,-0.104178704,0.237661481,-0.117984258
3.653483125,0.022549653,0.254887879,-0.213994816
3.663483125,0.121195666,0.299481034,-0.305903852
3.673483125,0.182212368,0.324404359,-0.379347324
3.683483125,0.211219743,0.305066109,-0.424324453
3.693483125,0.225252196,0.271608144,-0.441550851
3.703484688,0.238516688,0.240139857,-0.437850744
3.713484688,0.251868457,0.225356907,-0.438409239
3.723483125,0.262794226,0.229685321,-0.461465061
3.733483125,0.275971472,0.234502435,-0.504016161
3.743483125,0.299620658,0.241989896,-0.55831337
3.753483125,0.338977844,0.251693934,-0.615752161
3.763483125,0.393170327,0.237853467,-0.664307237
3.773484688,0.458498001,0.188321024,-0.690312624
3.783484688,0.534594357,0.124494337,-0.687520087
3.793483125,0.618754148,0.069917887,-0.654149413
3.803483125,0.709005117,0.072151914,-0.607880712
3.813483125,0.795905054,0.129084557,-0.563270092
3.823483125,0.879750669,0.203749731,-0.532517433
3.833483125,0.952967227,0.279270142,-0.527229071
3.843484688,1.008416295,0.328261524,-0.542483211
3.853483125,1.04777348,0.313373864,-0.568907499
3.863484688,1.068158984,0.25464353,-0.595680892
3.873484688,1.075227499,0.200957209,-0.608229816
3.883483125,1.07679832,0.161704749,-0.595139802
3.893483125,1.06381309,0.150604457,-0.566935301
3.903483125,1.03536427,0.100146994,-0.560495019
3.913484688,1.002778888,0.018099064,-0.578646481
3.923484688,0.971642256,-0.060301125,-0.608439207
3.933484688,0.939214051,-0.139486715,-0.629976571
3.943483125,0.891130209,-0.151791289,-0.624566078
3.953483125,0.799482942,-0.109309971,-0.572171271
3.963483125,0.68926543,-0.151389852,-0.520701528
3.973483125,0.581142306,-0.171304062,-0.525728047
3.983483125,0.47160542,-0.134146005,-0.593062878
3.993484688,0.367095113,-0.083130032,-0.71656239
4.003484688,0.283336759,0.009896017,-0.829886615
4.013483125,0.226456463,0.047856927,-0.907571197
4.023483125,0.199176967,0.021903882,-0.954572916
4.033483125,0.192178205,0.052743848,-0.993423939
4.043483125,0.203871906,0.175946638,-1.028138518
4.053483125,0.230418369,0.362277985,-1.067548037
4.063484688,0.269217044,0.537072718,-1.110710025
4.073484688,0.321699083,0.64852947,-1.150870085
4.083483125,0.385333776,0.680573702,-1.165984631
4.093483125,0.459929168,0.654987156,-1.156280637
4.103483125,0.542762518,0.591736436,-1.124864697
4.113483125,0.637795687,0.466334522,-1.081196547
4.123483125,0.751311898,0.384740382,-1.048244715
4.133484688,0.876905799,0.450678915,-1.052887321
4.143484688,0.996199012,0.606868446,-1.090272307
4.153483125,1.10318768,0.782134414,-1.145756245
4.163483125,1.191885352,0.972986162,-1.217698812
4.173483125,1.246322155,1.082802296,-1.282834411
4.183483125,1.268138766,1.041682363,-1.326520085
4.193483125,1.257439852,0.880274236,-1.339836955
4.203483125,1.227472663,0.690958381,-1.330813527
4.213484688,1.180505753,0.548766434,-1.324792147
4.223483125,1.122334003,0.488186032,-1.341110945
4.233483125,1.046185255,0.516250908,-1.393645406
4.243483125,0.953490794,0.574911475,-1.480527878
4.253483125,0.850498915,0.577826142,-1.567026377
4.263483125,0.740630448,0.502462864,-1.618094802
4.273484688,0.633135617,0.382785618,-1.618618369
4.283484688,0.531836748,0.230540544,-1.567113638
4.293483125,0.436070502,0.069307022,-1.4705621
4.303483125,0.342171788,-0.050213121,-1.362805486
4.313483125,0.250245303,-0.127950087,-1.265573144
4.323483125,0.163240641,-0.184219494,-1.17909205
4.333483125,0.079848811,-0.217398211,-1.102402329
4.343484688,0.003054326,-0.226229578,-1.022117138
4.353483125,-0.066357419,-0.206105933,-0.93228507
4.363484688,-0.128560945,-0.165753916,-0.837618411
4.373483125,-0.190275788,-0.100670591,-0.739705443
4.383483125,-0.256371409,-0.023230333,-0.630343139
4.393483125,-0.336621642,0.059655353,-0.505796432
4.403483125,-0.427343875,0.134966314,-0.377026021
4.413483125,-0.543268621,0.206716791,-0.237225145
4.423484688,-0.670974374,0.221778989,-0.078068577
4.433484688,-0.794840395,0.121963605,0.095940746
4.443483125,-0.911149144,-0.069341928,0.299481034
4.453483125,-1.015676856,-0.304088712,0.528293729
4.463483125,-1.107760429,-0.512725353,0.777230024
4.473483125,-1.187033296,-0.647918582,1.042136073
4.483483125,-1.261279583,-0.697747707,1.33610189
4.493484688,-1.331302285,-0.721135139,1.653385282
4.503484688,-1.391446233,-0.747454703,1.983339787
4.513483125,-1.429319978,-0.824441195,2.30969882
4.523483125,-1.397746921,-1.014472604,2.53338027
4.533483125,-1.358529329,-0.975255072,2.741336346
4.543483125,-1.344496965,-0.745063603,2.874417543
4.553483125,-1.287895918,-0.588280678,2.957442999
4.563484688,-1.198709607,-0.557702482,3.05219698
4.573484688,-1.09283793,-0.432160974,3.148085356
4.583483125,-0.970944107,-0.287403375,3.242926359
4.593483125,-0.836972654,-0.144007117,3.315357685
4.603483125,-0.693541467,-0.028745573,3.352236509
4.613483125,-0.539341629,0.022444934,3.370265722
4.623483125,-0.374285847,0.106499992,3.370614767
4.633484688,-0.215356171,0.285082072,3.365832567
4.643483125,-0.085521132,0.52883476,3.379830122
4.653483125,-0.021118484,0.746442437,3.39969182
4.663483125,-0.033021629,0.986198306,3.425924301
4.673483125,-0.032934364,0.859312832,3.413846493
4.683483125,-0.105016463,0.833778679,3.338675261
4.693483125,-0.24678956,0.967802525,3.216694117
4.703484688,-0.453017652,1.048681021,3.096126795
4.713484688,-0.675424993,0.926054239,2.974791527
4.723483125,-0.872036278,0.752551079,2.821865797
4.733483125,-1.010772467,0.602540016,2.618011236
4.743483125,-1.076711059,0.490472436,2.342580795
4.753483125,-1.070253372,0.5039289,1.993235826
4.763483125,-1.008224368,0.59983474,1.592735052
4.773484688,-0.901794195,0.619015932,1.20069921
4.783484688,-0.751381695,0.579693675,0.859173238
4.793483125,-0.569867432,0.594982743,0.581229568
4.803483125,-0.380830854,0.557109118,0.372488171
4.813483125,-0.191165909,0.391442448,0.228969738
4.823483125,-0.001466077,0.194045708,0.130986959
4.833483125,0.181252435,0.008150687,0.059009582
4.843484688,0.357338697,-0.169907808,0.010786135
4.853484688,0.523616254,-0.323060453,-0.01293289
4.863484688,0.679753363,-0.388231039,-0.035185836
4.873483125,0.81522584,-0.339815617,-0.088697635
4.883483125,0.911201477,-0.161425501,-0.20071286
4.893483125,0.950750649,0.067823492,-0.374111325
4.903483125,0.92399478,0.218986467,-0.582294226
4.913483125,0.838613272,0.243979573,-0.784246266
4.923484688,0.724573433,0.177116007,-0.942233443
4.933484688,0.582817793,0.027541295,-1.079747915
4.943483125,0.439578623,-0.192073479,-1.190070152
4.953483125,0.315572977,-0.40299651,-1.289693594
4.963483125,0.220871419,-0.527874827,-1.38978827
4.973483125,0.160552844,-0.547213078,-1.492483377
4.983483125,0.133517683,-0.485323697,-1.588755727
4.993484688,0.131685093,-0.380202532,-1.661553383
5.003484688,0.152611583,-0.300091922,-1.698467135
5.013483125,0.18943803,-0.309342146,-1.700107813
5.023483125,0.239406809,-0.426558465,-1.680402994
5.033483125,0.302832067,-0.610708177,-1.650837064
5.043483125,0.376397699,-0.757856846,-1.637520313
5.053483125,0.457607865,-0.826779902,-1.648707867
5.063483125,0.539533615,-0.799256086,-1.684574366
5.073484688,0.606781185,-0.662492096,-1.752886534
5.083483125,0.647813857,-0.508170068,-1.841078043
5.093483125,0.651636124,-0.387637615,-1.927576542
5.103483125,0.614111543,-0.294506848,-2.004475832
5.113483125,0.540388823,-0.254189759,-2.059628248
5.123483125,0.450818539,-0.293826193,-2.092387915
5.133484688,0.356780201,-0.416016668,-2.104919434
5.143483125,0.278380007,-0.614600241,-2.106490135
5.153483125,0.226962611,-0.887622118,-2.094377756
5.163483125,0.213122159,-1.182530403,-2.073869944
5.173483125,0.235270381,-1.295348406,-2.075842142
5.183483125,0.272114277,-1.11934948,-2.121831656
5.193483125,0.309254885,-0.810199261,-2.192779303
5.203484688,0.325905323,-0.454640806,-2.263133526
5.213484688,0.300091922,-0.148981303,-2.289837122
5.223483125,0.231186315,0.08265879,-2.244563341
5.233483125,0.124791041,0.203802094,-2.132303715
5.243483125,-8.72665E-05,0.191008836,-1.965502501
5.253483125,-0.130358636,0.054942966,-1.767268062
5.263483125,-0.257017195,-0.134791777,-1.570517063
5.273526875,-0.368002683,-0.328924745,-1.409283519
5.283484688,-0.447851479,-0.487121403,-1.299013615
5.293484688,-0.493614018,-0.596518636,-1.235082269
5.303483125,-0.510508776,-0.675913632,-1.184938908
5.313483125,-0.507000685,-0.740787566,-1.112664819
5.323483125,-0.490559697,-0.785939217,-0.990823388
5.333483125,-0.466840655,-0.858440161,-0.806499183
5.343484688,-0.429089189,-0.976057947,-0.565870643
5.353484688,-0.368456453,-1.084983945,-0.308836013
5.36348625,-0.290370435,-1.150957346,-0.059986968
5.373483125,-0.213471219,-1.164518595,0.162734494
5.383483125,-0.155491382,-1.161202431,0.363377541
5.393483125,-0.119048908,-1.164117098,0.552152336
5.403483125,-0.089744829,-1.107760429,0.726720214
5.413483125,-0.071139619,-0.983056724,0.887779176
5.423484688,-0.059306286,-0.866957366,1.046237588
5.433484688,-0.056443948,-0.805451989,1.211869359
5.443483125,-0.059812434,-0.737419069,1.363870144
5.453483125,-0.082571529,-0.587041497,1.496340632
5.463483125,-0.141720742,-0.328854948,1.592665315
5.473483125,-0.238010556,-0.047717303,1.645496368
5.483483125,-0.347529948,0.184708193,1.668255448
5.493483125,-0.442406058,0.336220235,1.689112186
5.503484688,-0.490315348,0.425982505,1.72714293
5.513483125,-0.490891308,0.450731277,1.783743978
5.523483125,-0.445163667,0.453803062,1.850816965
5.533483125,-0.387916893,0.578262508,1.904817462
5.543483125,-0.375594854,0.84697336,1.915917754
5.553483125,-0.452336967,1.188394666,1.877939343
5.563484688,-0.605175436,1.567270756,1.793605089
5.573484688,-0.787073672,1.960999608,1.676790118
5.583483125,-0.966371357,2.243515968,1.572698712
5.593483125,-1.124218941,2.192726851,1.560429096
5.603483125,-1.20787251,1.830780506,1.690752745
5.613483125,-1.196300983,1.326781869,1.921520233
5.623483125,-1.129332781,0.794299364,2.172271729
5.633484688,-1.024595499,0.458550364,2.378517151
5.643484688,-0.863641262,0.459073961,2.487722397
5.653483125,-0.664987922,0.740002155,2.485593081
5.663483125,-0.480838209,1.154622555,2.384189606
5.673483125,-0.380080342,1.427068472,2.24039197
5.683483125,-0.37285468,1.440350413,2.117520809
5.693483125,-0.409419328,1.291212082,2.049627304
5.703484688,-0.422090411,1.076955438,2.043728113
5.713484688,-0.392786354,0.861564338,2.068895817
5.723483125,-0.302133948,0.752376556,2.089071751
5.733483125,-0.172351256,0.830637097,2.066400051
5.743483125,-0.052569319,1.066029668,1.970180035
5.753483125,0.000837758,1.304057598,1.809609771
5.763483125,-0.028658306,1.420872569,1.623557568
5.773484688,-0.117862083,1.40743351,1.458850861
5.783484688,-0.220749244,1.250528455,1.354567528
5.793484688,-0.277769148,0.970141232,1.333675861
5.803483125,-0.247138619,0.661183059,1.382073879
5.813483125,-0.13220869,0.44954446,1.453475237
5.823483125,0.033178709,0.3839899,1.509849429
5.833483125,0.224100277,0.377287835,1.546518803
5.843484688,0.407813638,0.428391069,1.550498128
5.853484688,0.551873088,0.507768631,1.50960505
5.863484688,0.652334273,0.498343855,1.43951261
5.873483125,0.720506847,0.39013344,1.363730431
5.883483125,0.777055502,0.228987202,1.29297483
5.893483125,0.852977335,0.059306286,1.224976778
5.903483125,0.962165117,-0.036599554,1.152667761
5.913483125,1.107184529,-0.036896259,1.046796083
5.923484688,1.285190701,-0.060301125,0.893189669
5.933484688,1.498696804,-0.11342895,0.674849033
5.943483125,1.714698672,-0.138544232,0.370062172
5.953483125,1.921398044,-0.27307421,-0.042254422
5.963483125,2.090363503,-0.499740124,-0.523162425
5.973483125,2.255977631,-0.895720422,-1.109505773
5.983483125,2.382915497,-1.307303905,-1.664206386
5.993484688,2.478803873,-1.660226941,-2.065370321
6.003484688,2.513343811,-1.807532787,-2.215171814
6.013483125,2.550484419,-1.415811062,-2.136544704
6.023483125,2.553573847,-0.755064309,-1.876228929
6.033483125,2.473829746,-0.222075686,-1.497387767
6.043483125,2.291983843,0.060248766,-0.998991549
6.053483125,2.020497799,0.220696881,-0.434517175
6.063484688,1.671815991,0.293930888,0.062587507
6.073484688,1.31367445,0.203034148,0.369468749
6.083483125,1.06278336,-0.006632251,0.476247996
6.093483125,0.979374051,-0.290195882,0.447956204
6.103483125,1.04265964,-0.659367919,0.361579865
6.113483125,1.215412378,-1.049344301,0.255027503
6.123483125,1.421919703,-1.430349708,0.124843404
6.133484688,1.571511865,-1.820064187,-0.056845374
6.143483125,1.640906215,-2.181958199,-0.27921778
6.153483125,1.634029627,-2.534601927,-0.50323081
6.163483125,1.706390977,-2.064096212,-0.658617437
6.173481563,1.716112375,-1.885357022,-0.665354431
6.183483125,1.64204061,-1.517424107,-0.558173776
6.193483125,1.472691417,-1.572210073,-0.402368218
6.203484688,1.226547599,-1.874780297,-0.258779973
6.213484688,1.037353873,-2.079280615,-0.269182116
6.223483125,0.995570719,-1.841304898,-0.39730674
6.233483125,0.990491807,-1.639701962,-0.533983469
6.243483125,0.987053514,-1.677366138,-0.725062132
6.253483125,1.053620338,-1.756935716,-0.93137747
6.263483125,1.137116909,-1.776465893,-1.115038514
6.273484688,1.217105389,-1.73703897,-1.205219626
6.283484688,1.299275398,-1.5795753,-1.146559119
6.293484688,1.393750072,-1.350221634,-0.970001638
6.303483125,1.400417328,-1.20832634,-0.763546646
6.313483125,1.206720591,-1.062713504,-0.616729558
6.323483125,0.837600946,-0.827129006,-0.57855922
6.333483125,0.418145984,-0.530300856,-0.595593631
6.343484688,0.044453535,-0.354127318,-0.59220767
6.353484688,-0.254032671,-0.324561417,-0.579396963
6.363484688,-0.430782169,-0.442091912,-0.616851687
6.373483125,-0.460417867,-0.61690408,-0.725463569
6.383483125,-0.382855415,-0.73535955,-0.855228782
6.393483125,-0.243351251,-0.777020574,-0.924535811
6.403483125,-0.069586277,-0.840410948,-0.914587438
6.413483125,0.095417149,-1.036341548,-0.867987156
6.423484688,0.24212952,-1.379368663,-0.825488389
6.433484688,0.372034371,-1.765976548,-0.829031408
6.443483125,0.490193158,-2.042698383,-0.879558682
6.453483125,0.540894985,-2.042733431,-0.923488617
6.463483125,0.493771106,-1.881814003,-0.905337214
6.473483125,0.354144752,-1.652896643,-0.854862273
6.483483125,0.209212616,-1.482727051,-0.915878952
6.493484688,0.118280962,-1.295016885,-1.061631441
6.503483125,0.136100769,-1.05391705,-1.088596702
6.513483125,0.184079871,-0.966685534,-1.048576355
6.523483125,0.20751965,-1.07646668,-1.047651291
6.533483125,0.216036856,-1.193857551,-1.125266075
6.543483125,0.191549882,-1.263443828,-1.267545342
6.553483125,0.157341436,-1.327340364,-1.43563807
6.563484688,0.129887402,-1.35907042,-1.608251095
6.573484688,0.094212875,-1.356365204,-1.75979805
6.583483125,0.044034656,-1.322767615,-1.832770228
6.593483125,-0.031607911,-1.296482921,-1.796851397
6.603483125,-0.120131008,-1.297582507,-1.678622723
6.613483125,-0.191933855,-1.290287018,-1.562645674
6.623483125,-0.225845605,-1.236059666,-1.52667439
6.633484688,-0.236282676,-1.133922935,-1.568108559
6.643484688,-0.263858885,-1.048279643,-1.645356774
6.653483125,-0.329448342,-1.022972345,-1.728661299
6.663483125,-0.42039746,-1.012325883,-1.78288877
6.673483125,-0.498954713,-1.029238105,-1.801057577
6.683483125,-0.534262717,-1.078979969,-1.767582178
6.693483125,-0.513999462,-1.154116392,-1.680472851
6.703484688,-0.442318797,-1.263129711,-1.596539974
6.713484688,-0.353045195,-1.353642464,-1.554163337
6.723483125,-0.287036836,-1.410941601,-1.534249067
6.733483125,-0.263544708,-1.45930469,-1.518035054
6.743483125,-0.299289048,-1.496584892,-1.502239823
6.753483125,-0.380830854,-1.522817254,-1.486776114
6.763483125,-0.469720453,-1.553168535,-1.459514141
6.773484688,-0.527229071,-1.595702171,-1.400539398
6.783484688,-0.543024302,-1.674870253,-1.332715988
6.793484688,-0.526653111,-1.758681059,-1.28341043
6.803483125,-0.51052624,-1.822211027,-1.245449543
6.813483125,-0.507332325,-1.880801678,-1.208553195
6.823483125,-0.496720701,-1.948852062,-1.186562061
6.833483125,-0.476247996,-1.943179727,-1.193299055
6.843484688,-0.483665645,-1.8303442,-1.21912992
6.853484688,-0.522429407,-1.702778101,-1.251610518
6.863484688,-0.58664006,-1.562785268,-1.299781561
6.873483125,-0.671672523,-1.3812536,-1.361147404
6.883483125,-0.752935052,-1.190698504,-1.401429534
6.893483125,-0.80850631,-1.02126193,-1.418272018
6.903483125,-0.818192899,-0.83217299,-1.410068989
6.913483125,-0.790337443,-0.652386606,-1.378583193
6.923483125,-0.746686757,-0.538468957,-1.309119105
6.933484688,-0.679002881,-0.48970449,-1.20457387
6.943483125,-0.576517165,-0.461430132,-1.09341383
6.953483125,-0.469598293,-0.441446126,-1.00237751
6.963483125,-0.379207671,-0.43668139,-0.940435767
6.973483125,-0.312989891,-0.443645239,-0.894655764
6.983483125,-0.275378048,-0.43713516,-0.843325615
6.993484688,-0.258832335,-0.413101971,-0.761207879
7.003484688,-0.247051358,-0.381546438,-0.646435022
7.013483125,-0.222354949,-0.358438253,-0.506756365
7.023483125,-0.177168369,-0.354109854,-0.372802317
7.033483125,-0.118123882,-0.37318629,-0.262270629
7.043483125,-0.05412266,-0.432335496,-0.157777756
7.053483125,0.016964599,-0.517402828,-0.053930674
7.063484688,0.098087505,-0.579239845,0.039618973
7.073484688,0.183591187,-0.624234438,0.122225404
7.083483125,0.267419338,-0.64774406,0.185284153
7.093483125,0.33665657,-0.649506807,0.232826918
7.103483125,0.381878048,-0.625927448,0.261624843
7.113483125,0.400221437,-0.576970935,0.269164681
7.123483125,0.402385652,-0.524768174,0.246388122
7.133484688,0.389295697,-0.459789544,0.195302337
7.143484688,0.365122885,-0.384304047,0.115366265
7.153483125,0.329553068,-0.3400774,-0.01850049
7.163483125,0.33553955,-0.250035882,-0.061226148
7.173481563,0.306410015,-0.057543505,-0.047595128
7.183483125,0.257872403,0.047961649,-0.059864793
7.193483125,0.21617648,0.181444421,-0.075066611
7.203483125,0.16554448,0.29171434,-0.113236964
7.213484688,0.135088488,0.345714808,-0.153065369
7.223483125,0.154269651,0.355698109,-0.21708405
7.233483125,0.21856758,0.321035862,-0.178006127
7.243483125,0.279200315,0.268012762,-0.115366265
7.253483125,0.320459902,0.158475891,-0.081419609
7.263483125,0.361632228,0.110549152,-0.061365776
7.273484688,0.371912211,0.135367736,-0.072239175
7.283484688,0.354982525,0.183783174,-0.087301366
7.293484688,0.33075735,0.23757422,-0.087440997
7.303483125,0.317091405,0.280055523,-0.059620447
7.313483125,0.312867731,0.306078404,-0.026337018
7.323483125,0.316724896,0.303477854,-0.005445427
7.333483125,0.309569061,0.272882223,0.006702065
7.343483125,0.292691708,0.224327162,0.026912976
7.353484688,0.281765968,0.181444421,0.060178954
7.363484688,0.291452527,0.156102255,0.092170835
7.373483125,0.319185823,0.133657306,0.113463856
7.383483125,0.361370414,0.115278997,0.118874379
7.393483125,0.409873128,0.11491248,0.112661004
7.403483125,0.452930391,0.122749008,0.107267939
7.413483125,0.479092866,0.131964341,0.112346843
7.423484688,0.488395482,0.120672062,0.135629535
7.433484688,0.481937766,0.083653629,0.16257742
7.443483125,0.449335009,0.049462631,0.167132735
7.453490938,0.394845843,0.027471483,0.14655529
7.463483125,0.332956463,0.027366763,0.103620194
7.47348625,0.273562908,0.050474923,0.045029495
7.483483125,0.216647714,0.097371921,-0.010629055
7.493484688,0.171426237,0.14620623,-0.046844635
7.503484688,0.141738191,0.183486462,-0.058887407
7.513483125,0.12891002,0.201498255,-0.056705747
7.523483125,0.130707711,0.189787105,-0.047595128
7.533483125,0.138980567,0.15962781,-0.042830382
7.543483125,0.144251466,0.118228599,-0.056374136
7.553483125,0.138945654,0.078470007,-0.086114548
7.563484688,0.129049644,0.061295964,-0.112852991
7.573484688,0.121841438,0.063756876,-0.133063897
7.583483125,0.126257122,0.082815871,-0.138561696
7.593483125,0.143116996,0.090041533,-0.124529243
7.603483125,0.167673782,0.069917887,-0.099064887
7.613483125,0.200887397,0.05318018,-0.064105943
7.623483125,0.228865027,0.070005156,-0.038013272
7.633484688,0.233682126,0.115348808,-0.030805061
7.643483125,0.201131746,0.153327167,-0.029862583
7.653483125,0.142837748,0.155055046,-0.016964599
7.663483125,0.084508844,0.14507176,0.007522369
7.673483125,0.051853731,0.141720742,0.038519416
7.683483125,0.053302355,0.146223679,0.067003191
7.693483125,0.084631018,0.161024079,0.078504913
7.703484688,0.12719959,0.174480557,0.061994094
7.713484688,0.15303047,0.187361091,0.03351032
7.723483125,0.14416419,0.205250725,0.005393067
7.733483125,0.101211645,0.228027269,-0.011047934
7.743483125,0.031834807,0.239651158,-0.023195425
7.753483125,-0.038606685,0.248796687,-0.036704276
7.763483125,-0.095137894,0.249110848,-0.060528018
7.773484688,-0.119310707,0.217433125,-0.091472708
7.783484688,-0.111578897,0.195459425,-0.126326934
7.793484688,-0.089989178,0.21106267,-0.164654359
7.803483125,-0.077108644,0.241291761,-0.195459425
7.813483125,-0.085102253,0.289427936,-0.214815125
7.823483125,-0.115610607,0.364826173,-0.227294222
7.833483125,-0.161809474,0.430049121,-0.24712117
7.843483125,-0.20877628,0.45272094,-0.284628302
7.853484688,-0.248081103,0.460470229,-0.33417818
7.863484688,-0.274016678,0.451010525,-0.385229081
7.873483125,-0.284890085,0.417709649,-0.419804037
7.883483125,-0.277175725,0.400884688,-0.42950806
7.893483125,-0.25179866,0.399732769,-0.416016668
7.903483125,-0.209806025,0.402734727,-0.396992594
7.913483125,-0.155945167,0.426226854,-0.369835258
7.923484688,-0.098750725,0.446298152,-0.338611335
7.933484688,-0.057264253,0.442231536,-0.310912967
7.943483125,-0.037734017,0.429420799,-0.288782179
7.953483125,-0.040247291,0.423678666,-0.265220225
7.963483125,-0.059445914,0.416924238,-0.232949093
7.973483125,-0.091769412,0.429141551,-0.200730324
7.983483125,-0.133727133,0.457730055,-0.157777756
7.993484688,-0.177604705,0.489407778,-0.107547186
8.003484688,-0.225915417,0.519217968,-0.05597271
8.013483125,-0.265115499,0.53646183,0.022689281
8.023483125,-0.26202628,0.533302784,0.133901656
8.033483125,-0.196820781,0.53452456,0.268833071
8.043483125,-0.08527679,0.558086455,0.402490377
8.053483125,0.073827431,0.59723419,0.550162673
8.063484688,0.251432121,0.626328826,0.667902589
8.073484688,0.418180883,0.652683318,0.745517373
8.083483125,0.53885293,0.670607865,0.775414884
8.093483125,0.566917837,0.700592637,0.781244278
8.103483125,0.497924984,0.73705256,0.799884379
8.113483125,0.364965796,0.724939942,0.866049826
8.123483125,0.246597573,0.679631233,0.990945578
8.133484688,0.217782184,0.682388842,1.154797077
8.143484688,0.296444178,0.730664611,1.307757735
8.153483125,0.455129504,0.784874558,1.395879388
8.163483125,0.611319005,0.851842821,1.400068164
8.173481563,0.69380331,0.908758044,1.345072865
8.183483125,0.67367965,0.906332016,1.289536476
8.193483125,0.573742092,0.87769115,1.282694817
8.203484688,0.45148176,0.864513934,1.346137524
8.213484688,0.371353716,0.877377033,1.464121819
8.223484688,0.374879271,0.917170525,1.602561355
8.233483125,0.452930391,0.994069695,1.719358802
8.243483125,0.56058228,1.073150635,1.768297791
8.253483125,0.631425202,1.140991569,1.743932962
8.263483125,0.622454226,1.195864677,1.696791649
8.273484688,0.529463053,1.246723533,1.671414495
8.283484688,0.394933105,1.284614682,1.700509191
8.293484688,0.290789306,1.286586881,1.775471091
8.303483125,0.243316352,1.284230709,1.877119064
8.313483125,0.263090938,1.280251384,1.970162511
8.323483125,0.32700488,1.271926165,2.045578241
8.333483125,0.401408285,1.289554,2.068284988
8.343483125,0.458026767,1.339470387,2.023028612
8.353484688,0.457782418,1.406002283,1.9363904
8.363484688,0.375053793,1.495223522,1.861952186
8.373483125,0.226700813,1.572681308,1.84943819
8.383483125,0.07072074,1.622388244,1.881115913
8.393483125,-0.06757915,1.663717628,1.93330121
8.403483125,-0.177918866,1.689897537,1.989465952
8.413483125,-0.261293232,1.672479153,2.024529457
8.423484688,-0.345138848,1.631027579,1.975171685
8.433484688,-0.444884419,1.562156916,1.869457006
8.443483125,-0.530422986,1.431676149,1.80713141
8.453494063,-0.580182374,1.240021467,1.813309789
8.463483125,-0.564142764,1.054929376,1.850206137
8.473483125,-0.485358596,0.915128469,1.860660553
8.483483125,-0.392873615,0.85674721,1.831932425
8.493484688,-0.360375583,0.883904517,1.767739296
8.503484688,-0.460173517,0.945497215,1.653490067
8.513483125,-0.69916147,0.964084983,1.520216703
8.523483125,-0.963927865,0.909229279,1.418132424
8.533483125,-1.158741593,0.782500923,1.348039985
8.543483125,-1.257282853,0.656418324,1.280129194
8.553483125,-1.280635357,0.594755828,1.191658497
8.563484688,-1.29697156,0.605594337,1.07782805
8.573484688,-1.325472832,0.660188258,0.990142763
8.583483125,-1.343240261,0.68472755,0.943106115
8.593483125,-1.342699289,0.680783153,0.907518864
8.603483125,-1.312679529,0.629121363,0.884515405
8.613483125,-1.212881684,0.53497833,0.858893991
8.623483125,-1.085699558,0.431916624,0.773878992
8.633484688,-0.985500157,0.310738415,0.602260768
8.643484688,-0.931796372,0.152105451,0.368421555
8.653483125,-0.923924923,-0.05873033,0.128211886
8.663483125,-0.95219928,-0.324561417,-0.073164202
8.673481563,-0.998084009,-0.595488906,-0.242024809
8.683483125,-1.059571981,-0.808977544,-0.376554787
8.693484688,-1.130467176,-0.958866417,-0.493579119
8.703484688,-1.225814581,-1.047546625,-0.587931633
8.713483125,-1.316431999,-1.095927119,-0.629383206
8.723484688,-1.355230689,-1.131130457,-0.616642296
8.733483125,-1.303726077,-1.158654332,-0.580967724
8.743483125,-1.1352669,-1.234209538,-0.558906794
8.753483125,-0.850324392,-1.355422735,-0.595331788
8.763483125,-0.538765669,-1.493914604,-0.732549608
8.773484688,-0.324875593,-1.645775676,-0.949912906
8.783484688,-0.27897343,-1.758855581,-1.214487314
8.793484688,-0.422212601,-1.755958319,-1.496096253
8.803483125,-0.708551288,-1.609734654,-1.754736543
8.813483125,-1.013111234,-1.400487065,-1.944104791
8.823483125,-1.285243034,-1.201344967,-2.08849597
8.833483125,-1.450211525,-1.051700473,-2.173859835
8.843483125,-1.438744664,-0.993284345,-2.211174965
8.853484688,-1.270896435,-1.024490833,-2.242084742
8.863483125,-1.003546834,-1.118372083,-2.271423817
8.873483125,-0.706875801,-1.27693522,-2.298074961
8.883483125,-0.470348775,-1.442427397,-2.327972412
8.893483125,-0.333305538,-1.518366575,-2.332737207
8.903483125,-0.26602307,-1.510198474,-2.292420149
8.913483125,-0.234851509,-1.450333714,-2.221559763
8.923484688,-0.195319802,-1.330412149,-2.121377945
8.933484688,-0.119502693,-1.161045432,-2.018351078
8.943483125,-0.021432644,-0.978169799,-1.907889247
8.953483125,0.08487536,-0.828054011,-1.772678614
8.963483125,0.192998514,-0.725620627,-1.633436203
8.973483125,0.302378297,-0.682022333,-1.518907666
8.983483125,0.409052819,-0.639628291,-1.445813298
8.993483125,0.501188755,-0.538015187,-1.410889268
9.003484688,0.557894468,-0.407272577,-1.386803746
9.013483125,0.587163687,-0.29105112,-1.346940398
9.023483125,0.616048872,-0.213767931,-1.294772506
9.033483125,0.668845057,-0.1542871,-1.234227061
9.043483125,0.748484433,-0.112940252,-1.171081066
9.053483125,0.830270588,-0.067648962,-1.111582756
9.063484688,0.894271791,-0.041277036,-1.050932527
9.073484688,0.934257269,-0.020455258,-0.995675445
9.083483125,0.949389279,0.036599554,-0.931202948
9.093483125,0.939423442,0.126047671,-0.863868177
9.103483125,0.916402578,0.221709177,-0.793862998
9.113483125,0.892002881,0.29740411,-0.730141044
9.123483125,0.869680107,0.354807973,-0.676960826
9.133484688,0.849504113,0.402787089,-0.61678189
9.143484688,0.830933809,0.44385469,-0.535344839
9.153483125,0.811979532,0.501904309,-0.427745283
9.163483125,0.791908264,0.58424896,-0.286460876
9.173481563,0.778539002,0.698568046,-0.112661004
9.183483125,0.774402559,0.852314055,0.087615527
9.193483125,0.779586196,1.001888752,0.296269625
9.203484688,0.793025255,1.107760429,0.489180893
9.213484688,0.802153349,1.163227081,0.659106135
9.223484688,0.800652325,1.206493735,0.817843854
9.233483125,0.804090619,1.240038991,0.965289235
9.243483125,0.815138578,1.265590549,1.076309681
9.253483125,0.810408711,1.271175623,1.149526238
9.263483125,0.782012224,1.246409416,1.197889328
9.273484688,0.746390045,1.210420728,1.240754604
9.283484688,0.728290975,1.193281651,1.285836458
9.293484688,0.719843566,1.209198952,1.312155962
9.303483125,0.704414904,1.267440677,1.319294333
9.313483125,0.673697114,1.359297276,1.318159938
9.323483125,0.634531915,1.445411921,1.299886346
9.333483125,0.582398891,1.49195981,1.258103132
9.343483125,0.495917857,1.51426506,1.196772218
9.353484688,0.396137387,1.525958776,1.128198266
9.363484688,0.292953521,1.543865919,1.06142199
9.373483125,0.201882228,1.582926393,1.020144939
9.383483125,0.134198368,1.623016596,1.006513953
9.393483125,0.094020888,1.642861009,0.999009013
9.403483125,0.080721475,1.649021983,0.995082021
9.413483125,0.096795961,1.622719884,0.992062569
9.423484688,0.139975399,1.550480723,0.985796869
9.433483125,0.203505397,1.437906981,0.96848321
9.443483125,0.256825209,1.301300049,0.938201725
9.453483125,0.278083295,1.161499143,0.892142475
9.463483125,0.259024322,1.056622267,0.840271294
9.473483125,0.197292015,1.032152772,0.805818498
9.483483125,0.107041046,1.054091573,0.791838408
9.493484688,0.004956735,1.084826827,0.797039509
9.503484688,-0.066479594,1.083797097,0.81679666
9.513483125,-0.082815871,1.035887837,0.834738612
9.523484688,-0.043476153,0.956614971,0.843273282
9.533483125,0.030717794,0.85732317,0.831003606
9.543483125,0.107233033,0.752690673,0.800512731
9.553483125,0.144897237,0.662910938,0.747437239
9.563484688,0.10899581,0.586727321,0.674831569
9.573484688,0.012601277,0.520038307,0.60597831
9.583483125,-0.100094631,0.447659492,0.561123371
9.593483125,-0.173485726,0.369014949,0.545537591
9.603483125,-0.196785867,0.299707949,0.548975885
9.613483125,-0.172874868,0.260577649,0.56342721
9.623483125,-0.126047671,0.223524317,0.567685783
9.633484688,-0.088121675,0.16976817,0.553304255
9.643484688,-0.075206235,0.099466316,0.52281338
9.653483125,-0.093043499,0.00705113,0.489355415
9.663483125,-0.108000971,-0.089360856,0.470628023
9.673481563,-0.087510809,-0.165143058,0.470942199
9.683483125,-0.029461158,-0.193661734,0.469545931
9.693483125,0.021956243,-0.190589949,0.438985199
9.703484688,0.02984513,-0.178878799,0.383675724
9.713484688,-0.000855211,-0.184167147,0.321629286
9.723484688,-0.062954023,-0.182474166,0.252234995
9.733483125,-0.133954018,-0.143762767,0.189001709
9.743483125,-0.198758096,-0.087807514,0.133500233
9.753483125,-0.249599531,-0.030298917,0.090879291
9.763483125,-0.288276017,0.003001966,0.063652158
9.773484688,-0.307038307,-0.001117011,0.045797441
9.783484688,-0.301156551,-0.015044739,0.036599554
9.793484688,-0.270473659,-0.031887166,0.034697145
9.803483125,-0.218951553,-0.048677232,0.036582101
9.813483125,-0.166329876,-0.049200833,0.032916911
9.823483125,-0.130358636,-0.041015238,0.025289821
9.833483125,-0.120235734,-0.035377823,0.025359634
9.843483125,-0.139085293,-0.02974041,0.030752702
9.853484688,-0.163031206,-0.039182641,0.044610616
9.863484688,-0.172386169,-0.07178539,0.064437553
9.873483125,-0.166033179,-0.115977131,0.078400187
9.883483125,-0.144809961,-0.144181654,0.093863808
9.893483125,-0.112852991,-0.151128054,0.102607906
9.903483125,-0.075555302,-0.138910756,0.102642812
9.913483125,-0.046460666,-0.105592422,0.10183996
9.923484688,-0.035691984,-0.062412973,0.099920101
9.933483125,-0.046827182,-0.032986723,0.09796533
9.943483125,-0.078260563,-0.010506882,0.097092666
9.953483125,-0.105714589,0.022776546,0.098314397
9.963483125,-0.108437307,0.072640605,0.093270391
9.973483125,-0.092519902,0.105033912,0.082623884
9.983483125,-0.079709187,0.119956478,0.0628144
9.993484688,-0.07087782,0.126222208,0.048188541
10.00348469,-0.066758841,0.126449108,0.030735249
10.01348313,-0.071645766,0.119956478,0.018919369
10.02348313,-0.084212139,0.116640352,0.009669124
10.03348313,-0.098960169,0.140202299,-0.007609636
10.04348313,-0.131353483,0.17931512,-0.03700098
10.05348313,-0.176697135,0.219335526,-0.068818331
10.06348469,-0.221970975,0.274959177,-0.098558739
10.07348469,-0.238446876,0.400448352,-0.136938527
10.08348313,-0.234659523,0.556637883,-0.184830368
10.09348313,-0.226124853,0.679858088,-0.247557506
10.10348313,-0.217398211,0.619783878,-0.256772846
10.11348313,-0.214884937,0.59744364,-0.267052829
10.12348313,-0.210189998,0.618823946,-0.272672802
10.13348469,-0.205111086,0.610917568,-0.268955231
10.14348469,-0.203889355,0.551611304,-0.25691247
10.15348313,-0.190973923,0.474293232,-0.246039063
10.16348313,-0.152524322,0.412840188,-0.241728097
10.17348156,-0.098803088,0.355942458,-0.248499975
10.18348313,-0.050614547,0.305135906,-0.261380494
10.19348313,-0.020472713,0.273126572,-0.269496292
10.20348469,-0.011292281,0.257401168,-0.276163459
10.21348469,-0.02560398,0.257540792,-0.278571993
10.22348469,-0.053564154,0.256476134,-0.271957189
10.23348313,-0.088016957,0.241117239,-0.252444416
10.24348313,-0.118647479,0.216612816,-0.223559216
10.25348313,-0.130376101,0.173450828,-0.190101266
10.26352375,-0.12299335,0.124110363,-0.163607165
10.27348313,-0.108315133,0.078330375,-0.149470001
10.28348469,-0.097878061,0.030333823,-0.139277279
10.29348469,-0.097476639,-0.022130774,-0.124058001
10.30348313,-0.104824476,-0.060528018,-0.093270391
10.31348313,-0.112067588,-0.070109874,-0.037995819
10.32348313,-0.117949352,-0.068382002,0.030159289
10.33348313,-0.112050138,-0.086917393,0.098349303
10.34348313,-0.090303332,-0.103079148,0.150395021
10.35348469,-0.065345123,-0.120549887,0.181793496
10.36348469,-0.040107667,-0.147899196,0.18931587
10.37348313,-0.028972466,-0.183224663,0.184010059
10.38348313,-0.0344528,-0.225758344,0.178285375
10.39348313,-0.053843409,-0.270124614,0.17692402
10.40348313,-0.077859141,-0.301540524,0.182386905
10.41348313,-0.099344142,-0.319552332,0.188635185
10.42348469,-0.111805789,-0.328313887,0.18966493
10.43348469,-0.114703037,-0.319796681,0.181392074
10.44348313,-0.109554313,-0.3042458,0.172263995
10.45348313,-0.099937551,-0.27237609,0.16645205
10.46348313,-0.079395026,-0.217485473,0.165090695
10.47348313,-0.056339227,-0.149522349,0.177290544
10.48348313,-0.039549161,-0.088610366,0.197885424
10.49348469,-0.037123155,-0.03630285,0.214082092
10.50348469,-0.047054075,0.001256637,0.223053083
10.51348313,-0.054367006,0.019949114,0.223890841
10.52348313,-0.049706977,0.02687807,0.215460896
10.53348313,-0.038240165,0.034435347,0.203784645
10.54348313,-0.021572269,0.030822514,0.192544729
10.55348313,-0.010419616,0.020280726,0.180501953
10.56348469,-0.016790068,0.016406095,0.16667895
10.57348469,-0.031381018,0.015865043,0.1542871
10.58348313,-0.049846604,0.015882496,0.147811934
10.59348313,-0.070808008,0.012548917,0.139539078
10.60348313,-0.086585782,0.002949606,0.133220986
10.61348313,-0.084212139,-0.012112585,0.123220243
10.62348313,-0.068731062,-0.028588492,0.115470983
10.63348469,-0.051818825,-0.043476153,0.110933125
10.64348469,-0.038955748,-0.050178215,0.109676488
10.65348313,-0.037437312,-0.045832347,0.112189762
10.66348313,-0.047560222,-0.030072022,0.116954513
10.67348156,-0.06717772,-0.020018926,0.122190498
10.68348313,-0.087598078,-0.022724187,0.125855699
10.69348313,-0.098262034,-0.03481932,0.128281698
10.70348469,-0.100548416,-0.050876349,0.133186072
10.71348469,-0.093811445,-0.061819561,0.144984499
10.72348313,-0.081018187,-0.074316122,0.165928453
10.73348313,-0.064646997,-0.089360856,0.197658539
10.74348313,-0.05227261,-0.112800628,0.236230314
10.75348313,-0.039810959,-0.145455733,0.279479563
10.76348313,-0.030944688,-0.170693204,0.315485716
10.77348313,-0.027471483,-0.163868964,0.327999711
10.78348469,-0.02963569,-0.120759331,0.307474643
10.79348313,-0.029059732,-0.10421361,0.264644265
10.80348313,-0.023474678,-0.147043988,0.21355848
10.81348313,-0.0145735,-0.230592906,0.164514735
10.82348313,0.010454522,-0.341194421,0.140202299
10.83348313,0.073373638,-0.486719966,0.154618725
10.84348313,0.202423289,-0.669438481,0.195686311
10.85348469,0.409750938,-0.8449139,0.237102985
10.86348469,0.693646193,-0.994453669,0.267297179
10.87348313,1.007822871,-1.148566246,0.266581595
10.88348313,1.304528832,-1.284911394,0.215303808
10.89348313,1.526709318,-1.35589397,0.098139867
10.90348313,1.670245171,-1.401778579,-0.098035142
10.91348313,1.70405221,-1.435288906,-0.326935083
10.92348469,1.643122792,-1.402127743,-0.57686621
10.93348313,1.510983944,-1.283951402,-0.818821192
10.94348313,1.355544925,-1.108144403,-1.042467713
10.95348313,1.226390481,-0.954555452,-1.234698296
10.96348313,1.177259445,-0.910922229,-1.382248402
10.97348313,1.241086125,-0.970664859,-1.48763144
10.98348313,1.422809839,-1.092960119,-1.556868553
10.99348469,1.695011377,-1.295907021,-1.602613688
11.00348469,1.990966916,-1.50972724,-1.648550749
11.01348313,2.235033751,-1.623836875,-1.717630863
11.02348313,2.364031076,-1.650138974,-1.812454581
11.03348313,2.360802174,-1.595073819,-1.921607494
11.04348313,2.235923767,-1.488591313,-2.021300793
11.05348313,2.065335274,-1.33325696,-2.105111361
11.06348469,1.906074047,-1.091965199,-2.195659161
11.07348469,1.761909842,-0.822084963,-2.322352648
11.08348313,1.609403014,-0.597914875,-2.488106489
11.09348313,1.440577269,-0.435808718,-2.660667181
11.10348313,1.268086433,-0.348751694,-2.806070566
11.11348313,1.119733453,-0.362522334,-2.908154964
11.12348313,1.030756593,-0.407028228,-2.95002532
11.13348469,0.997682571,-0.445233494,-2.930896521
11.14348469,0.971188486,-0.405090928,-2.893494129
11.15348469,0.904010713,-0.272602975,-2.865690947
11.16348313,0.775816321,-0.10644763,-2.822144985
11.17348156,0.615804493,0.046809729,-2.73747921
11.18348313,0.454396456,0.152332336,-2.586595297
11.19348313,0.316969246,0.225287095,-2.371448755
11.20348469,0.236823723,0.261171073,-2.112930536
11.21348469,0.213401407,0.262218267,-1.851340532
11.22348469,0.241239414,0.146049157,-1.55590868
11.23348313,0.310686052,-0.181426972,-1.20103085
11.24348313,0.378038317,-0.457031906,-0.917571962
11.25348313,0.445949078,-0.855124056,-0.620639086
11.26348313,0.505883694,-1.275538921,-0.301715076
11.27348313,0.536776006,-1.5504632,-0.04436627
11.28348469,0.492671549,-1.636106491,0.167551607
11.29348469,0.384600759,-1.474122524,0.337599039
11.30348313,0.22800982,-1.147937894,0.468062401
11.31348313,0.026738444,-0.948132634,0.567162216
11.32348313,-0.164514735,-0.73738414,0.741101682
11.33348313,-0.296932876,-0.489774287,0.977314591
11.34348313,-0.395893037,-0.256964833,1.153470635
11.35348625,-0.505586982,0.033632495,1.198046327
11.36348469,-0.631948829,0.161216065,1.189249873
11.37348313,-0.770109057,0.20127137,1.19567275
11.38348313,-0.896942139,0.264591902,1.217279911
11.39348313,-1.017753839,0.339885414,1.274247408
11.40348313,-1.134568691,0.444221199,1.393348694
11.41348313,-1.235954881,0.558400631,1.568056107
11.42348469,-1.342105865,0.647133172,1.788735628
11.43348469,-1.474244714,0.685862005,2.017914772
11.44348313,-1.630975246,0.718464792,2.220914125
11.45348313,-1.788927555,0.747611761,2.387750149
11.46348313,-1.936948895,0.767875075,2.526468754
11.47348313,-2.05336237,0.749531627,2.655256748
11.48348313,-2.107851505,0.651758313,2.756625414
11.49348469,-2.080589533,0.489861548,2.801148653
11.50348313,-1.961593032,0.315607876,2.768057346
11.51348313,-1.804810047,0.213959917,2.662656784
11.52348313,-1.701556444,0.212738186,2.511109829
11.53348313,-1.700858235,0.270072252,2.400124311
11.54348313,-1.733705401,0.315066844,2.36783576
11.55348313,-1.679844499,0.311785609,2.326244593
11.56348469,-1.501419425,0.302500457,2.212379456
11.57348469,-1.27590549,0.407866001,1.995085835
11.58348313,-1.150294185,0.636643767,1.67172873
11.59348313,-1.276795626,0.890746236,1.318474054
11.60348313,-1.681572318,1.1019485,0.949075162
11.61348313,-2.267688751,1.330447078,0.611039758
11.62348313,-2.867453814,1.534929752,0.368630975
11.63348469,-3.263695955,1.561668277,0.220749244
11.64348469,-3.33207798,1.335316539,0.123534404
11.65348469,-3.116739273,1.042101145,0.004502949
11.66348313,-2.734005928,0.830375314,-0.131144047
11.67348313,-2.337833643,0.667797863,-0.237958193
11.68348313,-2.028125048,0.520125568,-0.309499234
11.69348313,-1.831304193,0.442179173,-0.377427459
11.70348469,-1.755574346,0.436018139,-0.411496282
11.71348469,-1.735241294,0.440416396,-0.373099029
11.72348469,-1.677785039,0.393048137,-0.277193189
11.73348313,-1.536744952,0.275011539,-0.161198616
11.74348313,-1.320341587,0.165666655,-0.052551862
11.75348469,-1.035434008,0.091350533,0.050038591
11.76348313,-0.706125319,0.04309218,0.138020635
11.77348313,-0.371406078,0.008569567,0.196890593
11.78348469,-0.092031211,0.01314233,0.206489906
11.79348469,0.081314892,0.052132983,0.181339711
11.80348313,0.147183612,0.088470742,0.147480324
11.81348313,0.13608332,0.106796697,0.1147554
11.82348313,0.071104713,0.125663713,0.069499008
11.83348313,-0.03122394,0.183189765,0.007504916
11.84348313,-0.13165018,0.26248008,-0.062674776
11.85349094,-0.202772349,0.333061188,-0.128299147
11.86348313,-0.237277508,0.368561178,-0.165020883
11.87348313,-0.220836505,0.365070522,-0.178704262
11.88348313,-0.152978107,0.321384937,-0.184603468
11.89348313,-0.047263514,0.269042492,-0.191200823
11.90348938,0.059533179,0.214378789,-0.196192458
11.91348313,0.141179681,0.142418861,-0.19615756
11.92348469,0.177953765,0.057054814,-0.203889355
11.93348469,0.157882482,-0.012095132,-0.219911486
11.94348313,0.090774573,-0.066078164,-0.236404851
11.95348469,-0.004118977,-0.095626593,-0.245794713
11.96348313,-0.087458447,-0.10554006,-0.244363546
11.97348313,-0.142506137,-0.102538094,-0.235793978
11.98348313,-0.160744831,-0.095696405,-0.22516492
11.99348469,-0.139905587,-0.107442468,-0.222302586
12.00348313,-0.08784242,-0.126885429,-0.225915417
12.01348313,-0.028117254,-0.164759085,-0.23130849
12.02348313,0.020926498,-0.208357409,-0.230924517
12.03348313,0.059288833,-0.238761038,-0.216700077
12.04348313,0.083426736,-0.264399916,-0.186278984
12.05348313,0.105784409,-0.287822247,-0.141319305
12.06348469,0.143204272,-0.28602457,-0.080529489
12.07348469,0.190764487,-0.268902868,-0.006143559
12.08348313,0.244049385,-0.244049385,0.072134458
12.09348313,0.301837236,-0.198845357,0.145822257
12.10348313,0.35772267,-0.125785872,0.200346351
12.11348313,0.399156809,-0.038309976,0.237696394
12.12348313,0.420868695,0.032724924,0.260525286
12.13348469,0.423277259,0.069603734,0.276983738
12.14348469,0.422352225,0.101421081,0.286862314
12.15348625,0.420275271,0.153763503,0.301994324
12.16348313,0.43111378,0.212144777,0.327353954
12.17348313,0.454117209,0.278484732,0.359747261
12.18348313,0.474659741,0.36580357,0.391477346
12.19348313,0.497994781,0.462372631,0.422107875
12.20348469,0.530213594,0.557824671,0.44690901
12.21348469,0.578384638,0.641792476,0.470261514
12.22348469,0.643851936,0.72773248,0.502619922
12.23348313,0.717243075,0.782518387,0.549045682
12.24348313,0.816342831,0.810600698,0.606205225
12.25349094,0.9461779,0.861930847,0.659350455
12.26348313,1.073115706,0.906401813,0.685216248
12.27348313,1.189389467,0.947783589,0.678182602
12.28348469,1.284719348,0.994453669,0.648320019
12.29348469,1.37329483,1.030145645,0.620307446
12.30348313,1.458309889,1.070829272,0.597932339
12.31348313,1.528925896,1.121112227,0.573846817
12.32348313,1.595859289,1.215290189,0.545764446
12.33348313,1.629770994,1.357901096,0.493369669
12.34348313,1.548648119,1.515259981,0.397044957
12.35348469,1.313534737,1.694644928,0.277926236
12.36348469,0.971188486,1.893298268,0.155561194
12.37348313,0.615350723,2.054043055,0.05873033
12.38348313,0.324578881,2.124798775,-0.001745329
12.39348313,0.14791666,2.114518642,-0.018011797
12.40348313,0.091315627,2.040970564,0.002722714
12.41348313,0.134372905,1.904014587,0.060109138
12.42348469,0.243979573,1.717107296,0.151267692
12.43348313,0.38138935,1.496043921,0.264906079
12.44348313,0.53147018,1.248346686,0.38138935
12.45348313,0.683662891,1.018504381,0.472251177
12.46348313,0.830951273,0.823743045,0.52883476
12.47348313,0.961519361,0.657692432,0.557597816
12.48348313,1.044631958,0.517717004,0.573480308
12.49348469,1.076623797,0.375682116,0.563915908
12.50348469,1.05746007,0.234537348,0.514069259
12.51348313,0.977733433,0.072117001,0.418145984
12.52348313,0.834476829,-0.132226139,0.294471949
12.53348313,0.631425202,-0.376188278,0.180606663
12.54348313,0.426069766,-0.677973151,0.110845864
12.55348313,0.308731288,-1.018364668,0.07070329
12.56348469,0.347425252,-1.290339351,0.029810224
12.57348469,0.541069508,-1.344357252,-0.087720245
12.58348313,0.838054717,-1.143818974,-0.381075174
12.59348313,1.101983428,-0.905860782,-0.802432597
12.60348313,1.148758292,-0.765885353,-1.131549358
12.61348313,0.914063811,-0.762324929,-1.397904038
12.62348313,0.512568295,-0.845297873,-1.671484351
12.63348469,0.120078653,-0.909281611,-1.894659638
12.64348469,-0.140149936,-0.952722847,-2.021562576
12.65348469,-0.230889603,-0.99169606,-2.105041504
12.66348313,-0.190677226,-1.073761463,-2.231822252
12.67348156,-0.100304075,-1.215237856,-2.409845829
12.68348313,-0.028920105,-1.401831031,-2.584954739
12.69348313,-0.001867502,-1.641621828,-2.727426052
12.70348469,-0.0082205,-1.95127809,-2.8214643
12.71348469,0.006475172,-2.290151119,-2.850576401
12.72348469,0.096237458,-2.61473012,-2.837346792
12.73348313,0.242862567,-2.874086142,-2.805669069
12.74348313,0.384635657,-3.13276124,-2.777534485
12.75348313,0.478063136,-3.432347059,-2.758510351
12.76348313,0.494888097,-3.766158819,-2.752157211
12.77348313,0.44010222,-4.101593494,-2.752890348
12.78348469,0.356867462,-4.360111713,-2.746066093
12.79348469,0.257959664,-4.484239578,-2.742854834
12.80348313,0.116186567,-4.450973511,-2.758300781
12.81348313,-0.077038832,-4.311713696,-2.774933815
12.82348313,-0.301139116,-4.11703968,-2.7696805
12.83348313,-0.479215056,-3.897669315,-2.731440306
12.84348313,-0.556777477,-3.665662766,-2.671941996
12.85348469,-0.528712571,-3.465351105,-2.599650383
12.86348469,-0.410187274,-3.317417145,-2.523658752
12.87348313,-0.235305294,-3.205541611,-2.441820383
12.88348313,-0.071139619,-3.096563101,-2.363228083
12.89348313,0.028221974,-2.994251966,-2.280377388
12.90348313,0.064420104,-2.864905596,-2.197369576
12.91348313,0.048904125,-2.686410666,-2.110556841
12.92348469,-0.012566371,-2.45417738,-2.016431332
12.93348469,-0.111020394,-2.222589493,-1.919932008
12.94348313,-0.218724668,-1.997564197,-1.812018275
12.95348313,-0.298276782,-1.744858027,-1.678884506
12.96348313,-0.338750958,-1.488312006,-1.511716962
12.97348313,-0.356605679,-1.2871629,-1.352507949
12.98348313,-0.372767419,-1.130816221,-1.201798797
12.99348469,-0.392821252,-0.99532634,-1.07156229
13.00348469,-0.420694172,-0.832120597,-0.95949477
13.01348313,-0.440294206,-0.673976362,-0.845315337
13.02348313,-0.423731029,-0.556149185,-0.714625061
13.03348313,-0.36555922,-0.473979056,-0.565085232
13.04348313,-0.260385662,-0.420153111,-0.404427707
13.05348313,-0.124895759,-0.38947022,-0.250297666
13.06348469,0.024242623,-0.366344601,-0.113236964
13.07348469,0.15358898,-0.320808977,0.004764749
13.08348313,0.225269645,-0.254277021,0.09829694
13.09348313,0.22800982,-0.16463691,0.18226473
13.10348313,0.169820532,-0.065711647,0.266092896
13.11348313,0.071959928,0.028797932,0.343794942
13.12348313,-0.026302112,0.137252688,0.422509313
13.13348469,-0.092258103,0.241588473,0.505709171
13.14348469,-0.096691243,0.317789555,0.595314324
13.15348469,-0.028483773,0.366780937,0.68073076
13.16348313,0.074735001,0.427047163,0.754959643
13.17348156,0.172089458,0.513318777,0.818908453
13.18348313,0.215321273,0.597059667,0.886452734
13.19348313,0.190188527,0.675861299,0.951954901
13.20348156,0.103951812,0.772186041,1.019708633
13.21348469,0.001448623,0.874095798,1.09749794
13.22348469,-0.092589714,0.957941413,1.181465745
13.23348313,-0.159348562,0.997455657,1.262553692
13.24348313,-0.189211145,1.009166837,1.3479352
13.25348313,-0.182421818,1.035800576,1.414641738
13.26348313,-0.167062908,1.059537053,1.462917566
13.27348313,-0.161565125,1.071213245,1.507632852
13.28348469,-0.169872895,1.110919476,1.569138288
13.29348469,-0.192143291,1.152179122,1.679390669
13.30348313,-0.21106267,1.176858068,1.828651309
13.31348313,-0.219719499,1.199756742,2.006186247
13.32348313,-0.212249488,1.215115666,2.17438364
13.33348313,-0.211917877,1.219025254,2.308616877
13.34348313,-0.248063639,1.240614891,2.386022091
13.35348469,-0.350322485,1.295889497,2.410788298
13.36348469,-0.501468003,1.340604901,2.408013344
13.37348469,-0.663748741,1.398986101,2.420963764
13.38348313,-0.809256792,1.510128617,2.492504597
13.39348313,-0.906838179,1.640679359,2.662744045
13.40348313,-0.938114464,1.804792643,2.907666206
13.41348313,-0.923767865,1.998000503,3.142674685
13.42348469,-0.897989333,2.135899067,3.283906698
13.43348469,-0.854164124,2.140628815,3.347925425
13.44348313,-0.74946183,1.942167521,3.394752741
13.45348313,-0.535152853,1.639474988,3.420234442
13.46348313,-0.220225647,1.423560381,3.36361599
13.47348313,0.126239657,1.307391286,3.191195011
13.48348313,0.372191459,1.354427814,2.952468872
13.49348469,0.402909249,1.506672978,2.7625072
13.50348469,0.226020142,1.663473248,2.677579403
13.51348313,-0.063529983,1.80803895,2.691053391
13.52348313,-0.314089447,1.927332163,2.748806238
13.53348313,-0.425022572,1.972012639,2.764618874
13.54348313,-0.398947358,1.963041663,2.692711353
13.55348313,-0.309534132,1.882267833,2.523990393
13.56348469,-0.223943189,1.698100686,2.286643028
13.57348469,-0.186802596,1.424118876,2.04309988
13.58348313,-0.190188527,1.135162115,1.84807682
13.59348313,-0.176522598,0.895650625,1.700579047
13.60348313,-0.123272605,0.776514411,1.567096233
13.61348313,-0.057805303,0.762132943,1.433351636
13.62348313,-0.039845865,0.778434277,1.287878394
13.63348469,-0.101927228,0.783827364,1.128041148
13.64348469,-0.221150666,0.794683337,0.957941413
13.65348469,-0.346168607,0.778469205,0.78962183
13.66348313,-0.425458908,0.729198575,0.644811869
13.67348156,-0.450102955,0.692982972,0.534908533
13.68348313,-0.425511271,0.657727301,0.446437776
13.69348313,-0.363272816,0.602487683,0.376432598
13.70348313,-0.288572729,0.550424457,0.324142545
13.71348469,-0.216281205,0.488901615,0.286251456
13.72348469,-0.155299395,0.391774058,0.253212363
13.73348313,-0.099989913,0.301243842,0.217136413
13.74348313,-0.057019908,0.228184342,0.166609123
13.75348313,-0.034505159,0.160291031,0.114668131
13.76348313,-0.024102997,0.075206235,0.058957223
13.77348313,-0.026197392,-0.009826204,0.005148721
13.78348469,-0.024818582,-0.105644777,-0.046443213
13.79348469,-0.014660765,-0.199683115,-0.097459182
13.80348313,0.001710423,-0.229580611,-0.151669115
13.81348313,0.007784168,-0.170099795,-0.197833076
13.82348313,-0.010821042,-0.06906268,-0.224501699
13.83348313,-0.074263759,0.037681658,-0.236684099
13.84348313,-0.178110853,0.125017941,-0.236736462
13.85348313,-0.300772578,0.180903375,-0.243455976
13.86348469,-0.412386388,0.199979827,-0.263701797
13.87348313,-0.483211845,0.188582823,-0.300842404
13.88348313,-0.494067788,0.150464833,-0.346430391
13.89348313,-0.453768164,0.120322995,-0.386485696
13.90348313,-0.379940718,0.079639375,-0.406853706
13.91348313,-0.296339452,0.025743606,-0.397341669
13.92348469,-0.213890105,-0.040247291,-0.361859113
13.93348469,-0.135420099,-0.123202793,-0.312850267
13.94348313,-0.065659285,-0.212895259,-0.260228604
13.95348313,-0.006614798,-0.264312655,-0.203837007
13.96348313,0.039304815,-0.281678677,-0.144495815
13.97348313,0.058608156,-0.307038307,-0.090547681
13.98348313,0.058538344,-0.313338965,-0.052307516
13.99348469,0.057246801,-0.277263016,-0.030264009
14.00348469,0.06263987,-0.222250223,-0.019425515
14.01348313,0.072151914,-0.175300866,-0.01452114
14.02348313,0.073652893,-0.140743345,0.003508112
14.03348313,0.057211891,-0.133849293,0.047438048
14.04348313,0.020978857,-0.123621672,0.102660269
14.05348313,-0.022916174,-0.08009316,0.148073733
14.06348469,-0.069987699,-0.004153884,0.169890344
14.07348469,-0.107233033,0.07993608,0.175318316
14.08348313,-0.126937792,0.168703526,0.179576933
14.09348313,-0.127461389,0.246423036,0.187204018
14.10348313,-0.11508701,0.299882472,0.19830431
14.11348313,-0.09574876,0.313199341,0.213523582
14.12348313,-0.072832592,0.301226377,0.221953526
14.13348469,-0.05120796,0.27522096,0.226683363
14.14348469,-0.039112829,0.231517926,0.22720696
14.15348469,-0.031346112,0.197780713,0.228638127
14.16348313,-0.023387412,0.186977118,0.234764233
14.17348156,-0.012287118,0.179611832,0.249669343
14.18348313,0.002164208,0.162106186,0.266860843
14.19348313,0.027960174,0.133203521,0.278659254
14.20348313,0.067282446,0.094963364,0.274540305
14.21348469,0.117390849,0.05066691,0.252863288
14.22348469,0.164828897,0.011780973,0.2123193
14.23348313,0.195075452,-0.011903145,0.154688537
14.24348313,0.201410994,-0.013875367,0.092973687
14.25348313,0.178878799,0.006091199,0.035081118
14.26348313,0.124703772,0.056199603,-0.006789331
14.27348313,0.064856432,0.117670096,-0.030700341
14.28348469,0.00122173,0.19149752,-0.036372662
14.29348469,-0.046129052,0.259059221,-0.030665435
14.30348313,-0.080599308,0.30606094,-0.026843164
14.31348313,-0.120881505,0.318417877,-0.017802358
14.32348313,-0.185964838,0.275831848,-0.003647738
14.33348313,-0.247016445,0.172595605,0.015934857
14.34348313,-0.273877054,0.0652055,0.041626103
14.35348469,-0.266249985,-0.017994344,0.083322018
14.36348469,-0.236753911,-0.103637651,0.129608154
14.37348313,-0.188111588,-0.184202045,0.173590451
14.38348313,-0.123988189,-0.254346818,0.216316104
14.39348313,-0.063809238,-0.317021608,0.265063167
14.40348313,-0.022881266,-0.38992402,0.315799862
14.41348313,0.00270526,-0.490472436,0.361632228
14.42348469,0.028274333,-0.649454474,0.400064379
14.43348469,0.09796533,-0.842470407,0.437292248
14.44348313,0.25975734,-0.962845802,0.419559687
14.45348313,0.507070482,-0.965533614,0.302936792
14.46348313,0.79564327,-0.906838179,0.105627328
14.47348313,1.060427189,-0.838997245,-0.113795467
14.48348313,1.26077354,-0.779272079,-0.296304554
14.49348469,1.393645406,-0.755535603,-0.407464564
14.50348469,1.49822557,-0.750613749,-0.464484483
14.51348313,1.605249166,-0.73944366,-0.521155298
14.52348313,1.724332929,-0.730036318,-0.619120657
14.53348313,1.833276391,-0.7073645,-0.755884647
14.54348313,1.918029547,-0.646051049,-0.938358843
14.55348313,1.954611659,-0.561367691,-1.119576335
14.56348469,1.95003891,-0.470069528,-1.280914545
14.57348469,1.915673375,-0.362243086,-1.41209352
14.58348313,1.869195223,-0.283720732,-1.507650256
14.59348313,1.840083122,-0.254277021,-1.566590071
14.60348313,1.839315176,-0.266284883,-1.602683544
14.61348313,1.873523712,-0.283441484,-1.652006507
14.62348313,1.932184219,-0.304717034,-1.745364189
14.63348469,1.995155692,-0.320913702,-1.911816239
14.64348469,2.02182436,-0.320582062,-2.12048769
14.65348469,2.002049685,-0.288921803,-2.320327997
14.66348313,1.93911314,-0.241885185,-2.4802351
14.67348156,1.839699149,-0.189856917,-2.595566273
14.68348313,1.72236073,-0.139853239,-2.6755898
14.69348313,1.615441799,-0.084596105,-2.722783327
14.70348313,1.528681517,-0.042044982,-2.729171276
14.71348469,1.484105825,0.025359634,-2.713184118
14.72348469,1.471801281,0.177622154,-2.687824488
14.73348313,1.459514141,0.381127536,-2.666898012
14.74348313,1.403873086,0.571455717,-2.659427881
14.75348313,1.275800824,0.739094555,-2.662569523
14.76348313,1.063795686,0.888215482,-2.659393072
14.77348313,0.786061406,0.990230024,-2.644924402
14.78348469,0.474502653,1.051246762,-2.611954927
14.79348313,0.196244821,1.104322195,-2.567082644
14.80348313,-0.082693696,1.163401604,-2.500760078
14.81348313,-0.324264735,1.222969651,-2.41710639
14.82348313,-0.525012493,1.281734943,-2.317308664
14.83348313,-0.683017135,1.331110239,-2.201086998
14.84348313,-0.808523774,1.340465188,-2.077535152
14.85348781,-0.904604137,1.294091821,-1.953878641
14.86348313,-0.949738383,1.187120557,-1.831740499
14.87348313,-0.928253353,1.040861964,-1.698920965
14.88348313,-0.851319253,0.911114216,-1.556379914
14.89348313,-0.765396714,0.808192134,-1.409475565
14.90348313,-0.702285588,0.682598293,-1.263356566
14.91348313,-0.686961591,0.441603214,-1.090813279
14.92348625,-0.72249651,0.088034406,-0.891933084
14.93348469,-0.773407757,-0.295815855,-0.702355385
14.94348313,-0.804910958,-0.621337235,-0.526478589
14.95348313,-0.79110539,-0.857707143,-0.337948114
14.96348313,-0.728011727,-0.986285567,-0.130585536
14.97348313,-0.65215975,-0.973527193,0.088261299
14.98348313,-0.628301084,-0.867969692,0.310092658
14.99348469,-0.688288033,-0.773878992,0.53361696
15.00348469,-0.801263213,-0.677187741,0.77688098
15.01348313,-0.931394935,-0.546881437,1.032938242
15.02348313,-1.076292157,-0.454797894,1.265293837
15.03348313,-1.223318696,-0.437414408,1.472778678
15.04348313,-1.319922686,-0.423608869,1.688309312
15.05348313,-1.324233651,-0.372488171,1.910559535
15.06348469,-1.233581305,-0.219736949,2.186443806
15.07348469,-1.063516378,0.048397981,2.484999895
15.08348469,-0.884532869,0.368543714,2.777429581
15.09348313,-0.752097249,0.659350455,3.035930395
15.10348313,-0.699946821,0.877848268,3.236521006
15.11348781,-0.71623075,1.011139035,3.366164207
15.12348313,-0.788801551,1.118703723,3.418262243
15.13348469,-0.903993309,1.200193167,3.37553668
15.14348469,-1.033287287,1.21377182,3.256889105
15.15348469,-1.152667761,1.206511259,3.104958296
15.16349094,-1.244262695,1.183804512,2.934177637
15.17348156,-1.274840832,1.179109573,2.801829338
15.18348313,-1.242168307,1.27157712,2.753204584
15.19348313,-1.173681617,1.387327313,2.787395477
15.20349406,-1.076065302,1.433019996,2.869617939
15.21348469,-0.967715263,1.415060639,2.941246271
15.22348469,-0.892840624,1.313587189,2.942066669
15.23348313,-0.838578343,1.103536725,2.85342145
15.24348313,-0.757455468,0.825505853,2.700181484
15.25352531,-0.617549837,0.579536557,2.514635563
15.26348313,-0.429159015,0.481990129,2.312456608
15.27348313,-0.234310448,0.591823697,2.107013941
15.28348469,-0.098768182,0.864775717,1.915725708
15.29348469,-0.092746794,1.203718662,1.759588599
15.30348313,-0.247906566,1.494071603,1.644396901
15.31348469,-0.488011509,1.623278379,1.573169947
15.32348313,-0.735656261,1.564635277,1.527512193
15.33348313,-0.894044936,1.345055461,1.479951978
15.34348313,-0.884899378,1.054266095,1.408759952
15.35348469,-0.715078831,0.79485786,1.30913651
15.36348469,-0.445408016,0.612488389,1.197138786
15.37348313,-0.152053088,0.47411868,1.100115895
15.38348313,0.090704761,0.345871896,1.043253064
15.39348313,0.260647476,0.174271122,1.037668109
15.40348313,0.370131969,-0.024294984,1.055016637
15.41348313,0.415789783,-0.178931147,1.031524539
15.42348469,0.387759805,-0.299131989,0.921760738
15.43348469,0.310930401,-0.397167116,0.741031885
15.44348313,0.225112572,-0.473438025,0.526478589
15.45348313,0.152262524,-0.510002673,0.289934099
15.46349094,0.095696405,-0.514191449,0.044837508
15.47348313,0.057403877,-0.496738166,-0.191375345
15.48348313,0.032114059,-0.481763244,-0.393484473
15.49348469,0.015097098,-0.472216278,-0.553827882
15.50348469,-0.010245083,-0.446891546,-0.684762478
15.51348313,-0.067736231,-0.429071754,-0.79803437
15.52348313,-0.164811447,-0.465287328,-0.89678508
15.53348313,-0.26816985,-0.568104684,-0.981241584
15.54348313,-0.342311412,-0.719302535,-1.055522799
15.55348313,-0.352521598,-0.882316291,-1.123171687
15.56348469,-0.29002136,-1.021610975,-1.192723155
15.57348469,-0.190991387,-1.117761254,-1.25244832
15.58348469,-0.061854467,-1.184293151,-1.314145684
15.59348313,0.047926743,-1.185497403,-1.380380869
15.60348313,0.092397727,-1.158252835,-1.446336865
15.61348313,0.056094881,-1.175025463,-1.485624313
15.62348313,-0.033772122,-1.251226544,-1.500983119
15.63348469,-0.13187708,-1.357604384,-1.50993669
15.64348313,-0.198391572,-1.46000278,-1.527075768
15.65348469,-0.210992858,-1.521857262,-1.561563492
15.66348313,-0.184184596,-1.552714705,-1.609821916
15.67348156,-0.156660751,-1.568178296,-1.666405439
15.68348313,-0.177377805,-1.571651578,-1.716147304
15.69348313,-0.246021613,-1.610450149,-1.733827472
15.70348313,-0.327720463,-1.668046117,-1.725013614
15.71348469,-0.403537571,-1.746114612,-1.699043155
15.72348469,-0.458183825,-1.842997909,-1.670332432
15.73348313,-0.482374102,-1.94674027,-1.653612137
15.74348313,-0.484189242,-2.025995731,-1.655392408
15.75348313,-0.486685067,-2.075371027,-1.657015562
15.76348313,-0.49139744,-2.109055758,-1.647398829
15.77348313,-0.510334253,-2.16007185,-1.623191118
15.78348469,-0.538381696,-2.226150036,-1.589069963
15.79348469,-0.570303798,-2.284653425,-1.55999279
15.80348313,-0.59971261,-2.329473495,-1.544546604
15.81348313,-0.615979075,-2.364554644,-1.534964681
15.82348313,-0.601580083,-2.40115428,-1.526813984
15.83348313,-0.562380016,-2.42291832,-1.505486131
15.84348313,-0.519322693,-2.395516634,-1.477682948
15.85348469,-0.522394478,-2.319507599,-1.453562498
15.86348313,-0.586081564,-2.214351654,-1.424153805
15.87348313,-0.674046159,-2.096472025,-1.391934991
15.88348313,-0.745499909,-1.965450168,-1.357586861
15.89348313,-0.794630945,-1.817795277,-1.332995176
15.90348313,-0.80908227,-1.668744206,-1.304441571
15.91348313,-0.781785309,-1.534353852,-1.254647374
15.92348469,-0.713089168,-1.449618101,-1.184118629
15.93348469,-0.615577638,-1.419580936,-1.103135347
15.94348313,-0.515692413,-1.400207877,-1.023530841
15.95348313,-0.446298152,-1.362142205,-0.958499908
15.96348313,-0.429333538,-1.280268788,-0.915948808
15.97348313,-0.453506351,-1.135930061,-0.879541218
15.98348313,-0.495970219,-0.94935441,-0.831195593
15.99348469,-0.553251922,-0.730804265,-0.767909944
16.00348469,-0.601789534,-0.511748016,-0.684657753
16.01348313,-0.617410243,-0.32848841,-0.578489363
16.02348313,-0.589258075,-0.19001399,-0.466334522
16.03348313,-0.540388823,-0.09245009,-0.374861807
16.04348313,-0.488744557,-0.049584802,-0.311366737
16.05348313,-0.446786821,-0.035674531,-0.261607409
16.06348469,-0.42018801,-0.0320617,-0.208985731
16.07348469,-0.4026649,-0.012618731,-0.132121429
16.08348469,-0.379190236,0.028413961,-0.02438225
16.09348313,-0.350828618,0.082833327,0.091839224
16.10348313,-0.32119295,0.129992127,0.212912709
16.11348313,-0.292237937,0.182456717,0.320774049
16.12348313,-0.267820776,0.266249985,0.405911237
16.13348313,-0.243072003,0.35817647,0.460906535
16.14348469,-0.207711637,0.420781434,0.507978082
16.15348469,-0.165125594,0.455216765,0.570670307
16.16348313,-0.117111593,0.461395234,0.64180994
16.17348156,-0.054681167,0.432667106,0.723072469
16.18348313,0.016947147,0.404811651,0.804701507
16.19348313,0.095207714,0.397044957,0.864147425
16.20348313,0.166521862,0.399069518,0.892229736
16.21348469,0.220993593,0.407813638,0.891985416
16.22348469,0.241466299,0.432335496,0.874392509
16.23348313,0.240942702,0.488186032,0.861913383
16.24348313,0.234292999,0.557929397,0.861511946
16.25348313,0.227713108,0.646941185,0.869243801
16.26348313,0.216263741,0.757734716,0.872228265
16.27348313,0.193103224,0.885876775,0.862279892
16.28348313,0.167185083,0.987891257,0.842906773
16.29348469,0.149417639,1.023146868,0.828071475
16.30348313,0.138823494,1.009603143,0.824336469
16.31348313,0.134529978,0.968029439,0.840201497
16.32348313,0.141493842,0.918723881,0.865212083
16.33348313,0.167464346,0.889559388,0.873327851
16.34348313,0.216560453,0.87505573,0.845210612
16.35348469,0.288642555,0.863554001,0.786934078
16.36348469,0.338663697,0.944833994,0.714939237
16.37348313,0.322920829,1.007386565,0.671253622
16.38348313,0.25439918,1.000632167,0.652997494
16.39348313,0.167045459,0.945479751,0.639837682
16.40348313,0.084037602,0.88519609,0.624845326
16.41348313,0.021903882,0.839067042,0.601108849
16.42348469,0.000593412,0.788435042,0.569658041
16.43348469,0.007661995,0.75729835,0.520788789
16.44348313,0.017156586,0.764942884,0.447345346
16.45348313,0.015114551,0.786864221,0.358909518
16.46348313,0.001099557,0.814248443,0.267489165
16.47348313,-0.010506882,0.863117695,0.137776285
16.48348313,-0.029251719,0.898460567,0.025097834
16.49348469,-0.036250487,0.914011478,-0.046931904
16.50348469,-0.034854226,0.9413957,-0.079709187
16.51348313,-0.055763271,0.907571197,-0.076358154
16.52348313,-0.095940746,0.79176861,-0.046268679
16.53348313,-0.131248757,0.646295428,-0.002879793
16.54348313,-0.158440992,0.582014918,0.036041047
16.55348313,-0.179297671,0.565835714,0.055309486
16.56348469,-0.189001709,0.542832315,0.043982297
16.57348469,-0.181409523,0.493264943,0.015306537
16.58348469,-0.162786856,0.427431136,-0.011327187
16.59348313,-0.131824717,0.36988762,-0.028780479
16.60348313,-0.086271621,0.320948601,-0.023177972
16.61348313,-0.033894293,0.277489901,-0.002356194
16.62348313,0.021485003,0.228899926,0.019669861
16.63348313,0.075869463,0.156695664,0.05248205
16.64348469,0.12742649,0.078487456,0.096464351
16.65348469,0.162769407,0.001012291,0.135053575
16.66348313,0.168337002,-0.059288833,0.153554067
16.67348156,0.144321278,-0.065973446,0.154182389
16.68348313,0.09630727,-0.014817845,0.125087753
16.69348313,0.037018433,0.051644292,0.075363316
16.70348313,-0.01977458,0.088941976,0.034976397
16.71348469,-0.059288833,0.110392071,0.012287118
16.72348469,-0.06848672,0.154775798,0.003525565
16.73348313,-0.049392819,0.187291279,0.000122173
16.74348313,-0.0283616,0.170623392,-1.74533E-05
16.75348313,-0.026965337,0.145420834,-0.004206243
16.76348313,-0.053948127,0.14199999,-0.022968533
16.77348313,-0.102223933,0.153868228,-0.061941735
16.78348469,-0.154322013,0.175091431,-0.110706232
16.79348313,-0.196454257,0.252549142,-0.156957462
16.80348313,-0.207589462,0.428303808,-0.189891815
16.81348313,-0.174550384,0.704100728,-0.197379291
16.82348313,-0.103114054,1.000963807,-0.181880757
16.83348313,-0.01574287,1.258068204,-0.156224415
16.84348313,0.072448619,1.386856079,-0.124215081
16.85348469,0.140254661,1.390346766,-0.112730816
16.86348313,0.158685341,1.282782078,-0.14348352
16.87348313,0.131981805,1.134498954,-0.200276524
16.88348313,0.081140354,0.97153753,-0.273021847
16.89348313,0.021013765,0.821491599,-0.332747012
16.90348313,-0.039374627,0.704327643,-0.358857155
16.91348313,-0.084683374,0.621599019,-0.352277249
16.92348469,-0.104894288,0.567720711,-0.324980319
16.93348469,-0.100478604,0.534786344,-0.295885652
16.94348313,-0.073286377,0.514994323,-0.272341162
16.95348313,-0.026930431,0.543303549,-0.249372646
16.96348313,0.032655109,0.625124574,-0.219178453
16.97348313,0.102974422,0.739600718,-0.189472944
16.98348313,0.163554803,0.836972654,-0.158964589
16.99348469,0.203051612,0.873519838,-0.125593886
17.00348469,0.215548158,0.849922955,-0.088610366
17.01348469,0.205599785,0.786916614,-0.042900193
17.02348313,0.184516206,0.685809672,0.009896017
17.03348313,0.16406095,0.57468456,0.050649453
17.04348313,0.147969007,0.490961105,0.072884947
17.05348313,0.135367736,0.447415143,0.077056289
17.06348469,0.120898955,0.446978807,0.064193211
17.07348469,0.109851025,0.489826649,0.050370201
17.08348469,0.113289319,0.569762707,0.049776789
17.09348313,0.12924163,0.671183825,0.063687064
17.10348313,0.142349049,0.744819283,0.082815871
17.11348313,0.144879773,0.769934535,0.104946651
17.12348313,0.139853239,0.753877521,0.122714102
17.13348313,0.13608332,0.695548594,0.119781949
17.14348469,0.135001212,0.629278481,0.095469512
17.15348469,0.1351583,0.589502394,0.05396558
17.16348313,0.131894529,0.580723405,0.011920598
17.17348156,0.11566297,0.599363506,-0.016091935
17.18348313,0.082885683,0.625491083,-0.032009337
17.19348313,0.041556288,0.659071207,-0.02576106
17.20348781,-0.003333579,0.698672771,0.003630285
17.21348469,-0.028553586,0.74616313,0.039235003
17.22348469,-0.024434609,0.786166131,0.05820673
17.23348313,-0.122365035,0.8907637,0.076550141
17.24348313,-0.467800587,0.918531895,0.141022608
17.25348313,-0.684535563,0.707259774,0.16259487
17.26348313,-0.723334253,0.503213346,0.103585288
17.27348313,-0.627149165,0.300301343,0.01160644
17.28348469,-0.425249457,0.152489409,-0.094038337
17.29348469,-0.133954018,0.050893802,-0.193120688
17.30348313,0.211516455,-0.018168878,-0.266389608
17.31348313,0.469127059,-0.06478662,-0.273510545
17.32348313,0.524872839,-0.152437061,-0.178006127
17.33348313,0.402263492,-0.354999959,-0.033981562
17.34348313,0.174707457,-0.614425719,0.110339716
