Time (s),Gyroscope x (rad/s),Gyroscope y (rad/s),Gyroscope z (rad/s)
0.21148,0.211795703,-1.874885082,-0.343306273
0.22148,0.266110361,-1.981315255,-0.482792974
0.23148,0.339553803,-1.916388988,-0.595645964
0.24148,0.460924,-1.537373304,-0.670154095
0.25148,0.551419318,-1.21265471,-0.701028943
0.261481563,0.640850008,-0.95186764,-0.702093601
0.271481563,0.707591355,-0.788504839,-0.689928651
0.28148,0.783827364,-0.618457437,-0.667728066
0.29148,0.821229756,-0.565015435,-0.660659492
0.30148,0.819693863,-0.523790777,-0.686804533
0.31148,0.764000416,-0.455600739,-0.725934803
0.32148,0.682319045,-0.411304295,-0.730525017
0.331481563,0.622454226,-0.365733743,-0.692633927
0.34148,0.577773809,-0.373448104,-0.608788311
0.35148,0.577302575,-0.503492594,-0.491380006
0.36148,0.634846032,-0.633205473,-0.428740144
0.37148,0.714450538,-0.706474364,-0.454972416
0.38148,0.777840912,-0.682685554,-0.583638072
0.39148,0.804457128,-0.586378276,-0.772028923
0.401481563,0.765134871,-0.460662216,-0.976337194
0.411481563,0.662963331,-0.327563405,-1.160504341
0.42148,0.526077151,-0.188809723,-1.277231932
0.43148,0.385508329,-0.053284902,-1.32686913
0.441481563,0.262061179,0.049235739,-1.345613956
0.45148,0.173904613,0.153309718,-1.348319173
0.46148,0.125087753,0.245131493,-1.338667512
0.471481563,0.104492866,0.31880185,-1.336189151
0.48148,0.100775309,0.399610579,-1.339609981
0.49148,0.093148224,0.445408016,-1.330831051
0.50148,0.092589714,0.508152604,-1.319154739
0.51148,0.095783666,0.668216765,-1.362281799
0.52148,0.07253588,0.836012721,-1.465710044
0.53148,-0.002338741,0.935775757,-1.567916512
0.541481563,-0.125506625,0.965725601,-1.615057826
0.551481563,-0.269007593,0.968605399,-1.584619284
0.561481563,-0.383291751,0.966772795,-1.492518306
0.57148,-0.457136631,0.933594048,-1.347917795
0.58148,-0.472006828,0.861267626,-1.172983408
0.591481563,-0.432579845,0.842243552,-1.006234646
0.60148,-0.368473917,0.880448818,-0.879192173
0.61148,-0.305572242,0.912318528,-0.80248493
0.621481563,-0.260019153,0.950977564,-0.76208055
0.631481563,-0.227381498,1.023391247,-0.715846777
0.64148,-0.210940495,1.113328099,-0.63409555
0.65148,-0.21230185,1.184066296,-0.498623103
0.66148,-0.218253419,1.234925151,-0.288851976
0.67148,-0.200311437,1.259394646,-0.015358897
0.68148,-0.136432394,1.304843068,0.306706697
0.691481563,-0.039706241,1.40673542,0.677781165
0.701481563,0.066217795,1.475187182,1.079294205
0.71148,0.168406814,1.479358554,1.46239388
0.72148,0.24439846,1.419092298,1.779206038
0.73148,0.295362055,1.272920966,2.013586283
0.74148,0.360585034,1.0411762,2.186199427
0.75148,0.446717024,0.812468231,2.32573843
0.761481563,0.532622099,0.646365225,2.446637392
0.771481563,0.611004889,0.476544708,2.553765774
0.78148,0.688497484,0.332310677,2.693619013
0.79148,0.743178666,0.275430411,2.875953436
0.80148,0.757472873,0.280160248,3.0770154
0.81148,0.747489631,0.307003409,3.293261766
0.82148,0.742026746,0.320145756,3.496068954
0.831481563,0.746198058,0.318697125,3.653934002
0.84148,0.748920798,0.288625091,3.745877981
0.85148,0.7316944,0.240401655,3.790540934
0.86148,0.672126293,0.211690977,3.796806812
0.87148,0.575574696,0.179734007,3.785409689
0.88148,0.470505863,0.152245075,3.780418158
0.89148,0.381773323,0.117862083,3.792897224
0.901481563,0.352329612,0.099221967,3.815289736
0.911481563,0.356343865,0.136013508,3.800245047
0.92148,0.367077649,0.199403867,3.716364384
0.93148,0.397114754,0.277175725,3.573038101
0.94148,0.407970697,0.37739253,3.381121635
0.95148,0.345941722,0.454745531,3.183410645
0.96148,0.195162714,0.451761007,3.020728588
0.971481563,-0.004380777,0.411234468,2.900580168
0.98148,-0.184603468,0.388405561,2.819003344
0.99148,-0.278537095,0.421636641,2.747689247
1.00148,-0.27089256,0.497890085,2.647158384
1.01148,-0.170693204,0.57480675,2.532839298
1.02148,-0.049061205,0.680119872,2.417734861
1.03148,0.042900193,0.771889329,2.309035778
1.041481563,0.091088735,0.826465786,2.203705072
1.051487813,0.084770642,0.862943113,2.088792562
1.061481563,0.011658799,0.889629245,1.965607285
1.07148,-0.113638386,0.879192173,1.839681745
1.08148,-0.255446374,0.806935549,1.722395658
1.09148,-0.372243822,0.669229031,1.618897557
1.10148,-0.43132323,0.459213585,1.505311608
1.11148,-0.400326163,0.225758344,1.348947525
1.121481563,-0.292185575,0.054960418,1.145983219
1.131481563,-0.138648957,-0.068137653,0.931517124
1.14148,0.023160519,-0.180973187,0.755500674
1.151487813,0.17898351,-0.277071029,0.636521578
1.16148,0.304298162,-0.31220451,0.559831798
1.17148,0.376135916,-0.280212611,0.484643012
1.18148,0.385211617,-0.253456712,0.38559559
1.19148,0.34634313,-0.271293968,0.259443194
1.20148,0.27113691,-0.321035862,0.105958939
1.21148,0.171216801,-0.386311173,-0.074525557
1.22148,0.055676002,-0.450626552,-0.267733514
1.23148,-0.07070329,-0.496022582,-0.448985934
1.24148,-0.196558982,-0.533721685,-0.60643208
1.25148,-0.308975637,-0.579693675,-0.738483727
1.26148,-0.389540046,-0.645876527,-0.853745282
1.271481563,-0.420484722,-0.75049156,-0.949895442
1.28148,-0.396940231,-0.876155257,-1.0274055
1.29148,-0.346238405,-0.993423939,-1.104898095
1.30148,-0.299411237,-1.102472067,-1.18511343
1.31148,-0.285710394,-1.187888503,-1.266114235
1.32148,-0.32313025,-1.24745667,-1.352874517
1.331481563,-0.41948989,-1.280705094,-1.433962464
1.34148,-0.58107245,-1.305960059,-1.512153268
1.35148,-0.757246017,-1.311702251,-1.575142145
1.36148,-0.899507761,-1.303743482,-1.616785765
1.37148,-0.982637823,-1.29866457,-1.635740042
1.38148,-1.006513953,-1.295156479,-1.636857033
1.39148,-0.985936463,-1.31082952,-1.632214427
1.401481563,-0.942826867,-1.340325594,-1.631865382
1.411481563,-0.924745262,-1.362334251,-1.647137046
1.42148,-0.975499451,-1.387536764,-1.667121053
1.43148,-1.074337363,-1.423787236,-1.669529557
1.44148,-1.175461769,-1.44656384,-1.655078292
1.45148,-1.237246394,-1.444364667,-1.623592496
1.461478438,-1.232534051,-1.439809322,-1.584671736
1.471481563,-1.147274733,-1.446581244,-1.533952475
1.481481563,-0.996129215,-1.440577269,-1.472464442
1.491481563,-0.836099982,-1.438639998,-1.420924902
1.50148,-0.727400899,-1.444504261,-1.374499083
1.51148,-0.689213037,-1.440350413,-1.319556117
1.521478438,-0.712897182,-1.430506706,-1.252395868
1.531478438,-0.772290766,-1.3985672,-1.187522054
1.541481563,-0.837129712,-1.312295556,-1.137239099
1.551481563,-0.899909198,-1.189860702,-1.118860722
1.56148,-0.962653816,-1.059798837,-1.131287456
1.57148,-1.017666578,-0.914936483,-1.161010504
1.58148,-1.073482156,-0.750317037,-1.170801759
1.59148,-1.120536327,-0.594179869,-1.131270051
1.60148,-1.155931592,-0.483578384,-1.045644164
1.611483125,-1.152859807,-0.39697513,-0.929736912
1.62148,-1.115439892,-0.349938512,-0.822207153
1.631481563,-1.039937019,-0.322327405,-0.740455925
1.64148,-0.936456382,-0.267733514,-0.679334521
1.65148,-0.837356627,-0.196820781,-0.660467505
1.66148,-0.761818767,-0.134495065,-0.689195633
1.67148,-0.713979304,-0.08726646,-0.766845286
1.68148,-0.695723116,-0.087580621,-0.885702252
1.691481563,-0.722007811,-0.096324719,-0.980892479
1.70148,-0.822311878,-0.068382002,-0.985657215
1.71148,-0.986442626,-0.001117011,-0.86289078
1.72148,-1.159108043,0.13278465,-0.640989602
1.73148,-1.309642673,0.256074697,-0.387009293
1.74148,-1.382894158,0.321384937,-0.135018677
1.75148,-1.318090081,0.358769894,0.051155601
1.76148625,-1.13390553,0.344877064,0.13255775
1.77148,-0.884253621,0.29979521,0.143082097
1.78148,-0.66901958,0.302046686,0.120200828
1.79148,-0.573846817,0.301453263,0.124284893
1.80148,-0.582032382,0.351474404,0.218323231
1.81148625,-0.662980795,0.476823956,0.383867711
1.82148,-0.77881825,0.580723405,0.590409994
1.831481563,-0.825523257,0.679386854,0.805364728
1.84148,-0.753406286,0.78962183,0.946614206
1.85148,-0.5956285,0.869016886,0.995954692
1.86148,-0.403066337,0.913941681,0.988868654
1.87148,-0.239633709,0.930661917,0.934519112
1.88148,-0.160186321,0.874043405,0.869889557
1.89148,-0.139050379,0.802519858,0.858475089
1.901481563,-0.163170829,0.813951731,0.884026706
1.911481563,-0.222477123,0.827303529,0.939981997
1.92148,-0.25464353,0.803025961,1.024490833
1.93148,-0.203837007,0.77675879,1.116801262
1.94148,-0.089901909,0.753004849,1.191187263
1.95148,0.013386675,0.745412648,1.231399655
1.961487813,0.067387164,0.786392987,1.262344241
1.971481563,0.080686569,0.847601712,1.277162075
1.98148,0.08323475,0.879523754,1.277476311
1.991481563,0.119380519,0.844425201,1.295924425
2.00148,0.221569553,0.77448988,1.329487085
2.011481563,0.385909736,0.662474632,1.360920429
2.02148,0.559500217,0.526321471,1.384395123
2.03148,0.645160973,0.416854441,1.387309909
2.041481563,0.588350475,0.295955479,1.374219894
2.05148,0.453715801,0.161739662,1.375616193
2.061481563,0.33780849,0.099693209,1.383697033
2.07148,0.280875832,0.143954754,1.383435249
2.08148,0.285151899,0.275308222,1.399527192
2.09148,0.336482018,0.462180644,1.432688475
2.10148,0.415423274,0.630151153,1.47909677
2.11148,0.487959146,0.786078811,1.531508923
2.121481563,0.51881659,0.910206676,1.550777435
2.131481563,0.48867473,0.962287307,1.531473994
2.14148,0.403712094,0.95743525,1.486008167
2.15148,0.303460389,0.906977773,1.42677176
2.161481563,0.218742117,0.813689947,1.366732478
2.17148,0.177849054,0.72579515,1.321266651
2.18148,0.204133704,0.689823925,1.282153726
2.191481563,0.296985239,0.722618639,1.236042142
2.20148,0.445826888,0.816901326,1.20012331
2.21148,0.59925878,0.945340157,1.194293857
2.22148,0.719372332,1.058140755,1.198133588
2.23148,0.804544449,1.123922229,1.168707371
2.24148,0.86140722,1.156088591,1.06109035
2.25148,0.887203217,1.150800347,0.865665853
2.261481563,0.881356359,1.124218941,0.61439079
2.271481563,0.840323687,1.095141768,0.356902391
2.28148,0.758485198,1.074913383,0.142942458
2.29148,0.651915371,1.059379935,-0.012095132
2.30148,0.531889081,1.045905948,-0.106953777
2.31148,0.411688268,1.027300835,-0.151721478
2.321478438,0.297857881,1.008957386,-0.183713362
2.331481563,0.188704997,0.986442626,-0.240680903
2.34148,0.092101023,0.952513456,-0.341299146
2.35148,0.003508112,0.900380433,-0.483403832
2.36148,-0.085241884,0.81168282,-0.646452487
2.37148,-0.16531758,0.671253622,-0.793688476
2.38148,-0.246300861,0.446263224,-0.925460815
2.39148,-0.311611086,0.163380265,-1.020877957
2.401481563,-0.36555922,-0.14940019,-1.084425449
2.411481563,-0.415719986,-0.46034804,-1.135755539
2.42148,-0.456630498,-0.721763432,-1.179196835
2.43148,-0.503824174,-0.914814353,-1.217611551
2.44148,-0.555869937,-1.057355404,-1.247892976
2.45148,-0.596815348,-1.179528356,-1.274317265
2.46148,-0.611353934,-1.283375502,-1.310637593
2.471481563,-0.594162464,-1.367413163,-1.355684519
2.48148,-0.536357105,-1.434747934,-1.416387081
2.491481563,-0.436157793,-1.508889437,-1.499394894
2.50148,-0.315974414,-1.578196526,-1.610834122
2.51148,-0.228044719,-1.653123498,-1.735817194
2.52148,-0.209107891,-1.757110238,-1.851235867
2.53148,-0.280107886,-1.864552736,-1.937891364
2.541481563,-0.411845356,-1.936407924,-1.990041852
2.551481563,-0.541924715,-1.952377677,-2.00442338
2.561481563,-0.60733968,-1.912584186,-1.997895837
2.57148,-0.609294415,-1.813466907,-1.984439373
2.58148,-0.577250183,-1.689635754,-1.959393859
2.59148,-0.535693884,-1.58641696,-1.934208751
2.60148,-0.486178905,-1.532678366,-1.918832421
2.61148,-0.438793212,-1.523393154,-1.921851873
2.621481563,-0.404427707,-1.537547827,-1.949270964
2.63148,-0.3815988,-1.534214258,-1.986097455
2.64148,-0.362085998,-1.518314242,-2.0125916
2.65148,-0.368962616,-1.52634275,-2.034076452
2.66148,-0.407848537,-1.573937893,-2.038387537
2.67148,-0.444744796,-1.628409624,-2.027740955
2.68148,-0.472006828,-1.672025442,-2.025053263
2.691481563,-0.505499721,-1.698275208,-2.038422346
2.70148,-0.534454703,-1.691241503,-2.054461956
2.71148,-0.523703516,-1.653856516,-2.063956499
2.72148,-0.454309195,-1.602421641,-2.058144569
2.73148,-0.335749,-1.533341527,-2.029538631
2.74148,-0.214937299,-1.472237587,-1.989116788
2.75148,-0.155822992,-1.45567441,-1.948258638
2.761481563,-0.173887148,-1.46214962,-1.905445695
2.771481563,-0.251432121,-1.473372102,-1.876787424
2.78148,-0.343096823,-1.494892001,-1.866315484
2.79148,-0.391843855,-1.496200919,-1.862754941
2.80148,-0.375839204,-1.484280348,-1.872110009
2.81148,-0.292639345,-1.422338605,-1.879527569
2.821478438,-0.155526295,-1.277546048,-1.871027827
2.831481563,-0.043720499,-1.0995574,-1.857344508
2.84148,-0.024958208,-0.970787048,-1.823240757
2.85148,-0.089465573,-0.882787526,-1.766919017
2.86148,-0.204866752,-0.819693863,-1.705553174
2.87148,-0.328680396,-0.781698048,-1.655846238
2.88148,-0.389871657,-0.72818625,-1.615214944
2.89148,-0.361422777,-0.660868943,-1.588581204
2.901481563,-0.243787587,-0.579641283,-1.557828546
2.911481563,-0.081995569,-0.497471184,-1.520181775
2.92148,0.052883476,-0.453000218,-1.479358554
2.93148,0.126763269,-0.461168349,-1.421972156
2.94148,0.143675506,-0.45977208,-1.334234357
2.95148,0.140499011,-0.419664413,-1.24176681
2.961522188,0.138212621,-0.342677951,-1.168672442
2.971481563,0.158231556,-0.234153375,-1.104391932
2.98148,0.215809956,-0.120322995,-1.029953718
2.991481563,0.303111345,-0.026598819,-0.926071703
3.00148,0.399383694,0.04860742,-0.804160476
3.01148,0.485410959,0.11121238,-0.670625329
3.021478438,0.553356647,0.15222761,-0.544752181
3.03148,0.603744268,0.184341669,-0.445896715
3.041481563,0.645702004,0.22834143,-0.384321511
3.051481563,0.673889101,0.285378784,-0.357181638
3.061481563,0.681865215,0.348385185,-0.340217024
3.07148,0.669246495,0.406923503,-0.309673756
3.08148,0.656208873,0.467486441,-0.259146482
3.09148,0.659071207,0.545397937,-0.197187304
3.10148,0.677833498,0.642158985,-0.138177723
3.11148,0.700418055,0.735464275,-0.083095126
3.121481563,0.716579854,0.806185007,-0.039269909
3.131481563,0.726981997,0.868877232,-0.002146755
3.14148,0.738902569,0.927083969,0.031066861
3.15148,0.751521349,0.976546645,0.063529983
3.16148,0.76550138,1.004716277,0.092868969
3.17148,0.78826052,1.012046576,0.117617741
3.18148,0.822399139,1.023391247,0.142942458
3.191481563,0.853832543,1.033252358,0.172333807
3.201481563,0.877394438,1.037737846,0.207589462
3.21148,0.892229736,1.04253757,0.24893631
3.22148,0.899333239,1.071405292,0.292482287
3.23148,0.895825148,1.119628668,0.327999711
3.24148,0.874357581,1.177224517,0.351387143
3.25148,0.834180117,1.231958151,0.36580357
3.261481563,0.781890035,1.282520294,0.368735701
3.271481563,0.7283957,1.333728194,0.362592161
3.28148,0.681777954,1.38001442,0.357059449
3.29148,0.643974125,1.423961759,0.361405313
3.30148,0.609172285,1.462568402,0.394618928
3.31148,0.576761484,1.492710233,0.462302804
3.32148,0.555765212,1.492884874,0.547579587
3.331481563,0.549726367,1.480929375,0.624129713
3.34148,0.553269386,1.470108271,0.672510266
3.35148,0.550738633,1.448762894,0.683820009
3.36148,0.541802585,1.429983139,0.660118401
3.37148,0.510892749,1.408375978,0.620429635
3.381483125,0.46228537,1.371148109,0.587128758
3.39148,0.408319771,1.326188445,0.582556009
3.401481563,0.363237917,1.287075639,0.601754606
3.411481563,0.337267429,1.260546565,0.630360544
3.42148,0.323810935,1.250668049,0.658512712
3.43148,0.316166401,1.246636271,0.673400402
3.44148,0.29286626,1.240492821,0.679596305
3.45148,0.246161237,1.244035721,0.696351469
3.46148,0.178861335,1.236303926,0.746529698
3.471481563,0.109065622,1.206493735,0.832906008
3.481481563,0.058171824,1.158968449,0.944764197
3.491481563,0.050823987,1.125423193,1.062538981
3.50148,0.085311696,1.11275208,1.151585698
3.51148,0.145438284,1.11786592,1.200036049
3.52148,0.208689019,1.135930061,1.199617147
3.531478438,0.243211627,1.163087368,1.168358326
3.54148,0.233559966,1.17497313,1.162249684
3.551481563,0.180763751,1.135755539,1.223074317
3.561481563,0.109798662,1.044841409,1.361845493
3.57148,0.055134952,0.945043445,1.546274424
3.581481563,0.047961649,0.88928014,1.729568958
3.59148,0.103358395,0.899612486,1.856192589
3.60148,0.189961642,0.974906027,1.916388988
3.61148,0.243106917,1.064127207,1.929758191
3.62148,0.226229578,1.093937516,1.933353543
3.631487813,0.166609123,1.049501419,1.952569604
3.64148,0.118717298,0.999427915,1.989727736
3.65148,0.113219507,0.964276969,2.030673027
3.66148,0.132138878,0.955899358,2.06098938
3.67148,0.148859128,0.994174421,2.081305027
3.681478438,0.132051617,1.061299801,2.104500532
3.691481563,0.059341196,1.126191139,2.1389184
3.70148,-0.052534409,1.17088902,2.190073967
3.71148,-0.17510888,1.178149581,2.234614849
3.72148,-0.247208431,1.123328805,2.255768299
3.73148,-0.246597573,1.056360483,2.253708839
3.74148,-0.206996053,1.022309184,2.249153376
3.75148,-0.154409274,0.989252627,2.264582157
3.76148,-0.119083814,0.941203713,2.304445505
3.77148,-0.116413459,0.853605628,2.360522985
3.78148,-0.12948598,0.733003378,2.432064056
3.79148625,-0.121841438,0.641565561,2.504861593
3.80148,-0.078487456,0.62861526,2.562841415
3.81148,-0.020385446,0.686979055,2.592093229
3.821478438,0.043127086,0.796201766,2.590766668
3.831481563,0.078068577,0.923977315,2.561043739
3.84148,0.056286868,0.99157393,2.536242723
3.85148,-0.003211406,0.995047092,2.539419174
3.86148,-0.060545471,0.98679173,2.573034286
3.87148,-0.091420345,1.005169988,2.623177528
3.88148,-0.096272364,1.061229944,2.668643236
3.89148,-0.069516465,1.150206923,2.68255353
3.901481563,-0.045989424,1.264997125,2.650334835
3.911481563,-0.053843409,1.362177134,2.595409393
3.92148,-0.104702301,1.396403074,2.545109034
3.93148,-0.167429432,1.354846716,2.527742863
3.94148,-0.216193929,1.271350145,2.522524357
3.95148625,-0.233350515,1.184886575,2.507881165
3.96148,-0.234903857,1.108807683,2.477407694
3.971481563,-0.238865763,1.047302246,2.41982913
3.98148,-0.258012027,1.021192193,2.33324337
3.991481563,-0.303128779,1.016689181,2.238245249
4.00148,-0.356658041,1.016078353,2.146685123
4.01148,-0.39845866,0.988327563,2.058319092
4.02148,-0.420414895,0.918968201,1.974072099
4.03148,-0.405405074,0.846170545,1.887695789
4.041478438,-0.356832564,0.816726804,1.780253291
4.05148,-0.295274794,0.815278172,1.651290894
4.061481563,-0.23916246,0.811647892,1.518576026
4.07148,-0.180397227,0.789307714,1.376750588
4.08148,-0.123621672,0.738518596,1.24518764
4.09148,-0.055571284,0.636731029,1.134306908
4.10148,0.032986723,0.510665894,1.048820734
4.11148,0.152576685,0.394269884,0.971380472
4.121481563,0.298189491,0.298573464,0.866137087
4.131481563,0.444936782,0.226089954,0.720733702
4.14148,0.56103611,0.178285375,0.53522265
4.15148,0.633257806,0.149819061,0.335399926
4.16148,0.679229796,0.14404203,0.132610112
4.17148,0.710628271,0.146572754,-0.084439032
4.18148,0.726528227,0.129398704,-0.306951046
4.191481563,0.736336946,0.071959928,-0.524366736
4.20148,0.720751166,0.024748769,-0.715288281
4.21148,0.659367919,-0.000785398,-0.891287267
4.22148,0.55592227,-0.045046948,-1.034927845
4.23148,0.454221934,-0.105260804,-1.141131163
4.24148,0.401809692,-0.146852002,-1.216878414
4.25148,0.423748493,-0.177901417,-1.256759286
4.261481563,0.515343368,-0.203453034,-1.274299741
4.271481563,0.647778928,-0.240262017,-1.282607555
4.28148,0.781872571,-0.285710394,-1.306710601
4.29148,0.882281363,-0.330687523,-1.347010255
4.30148,0.919317245,-0.37978363,-1.395373225
4.31148,0.893992543,-0.428914666,-1.441711783
4.32148,0.831946075,-0.43280676,-1.496305704
4.331481563,0.762010753,-0.393641561,-1.559486628
4.34148,0.701116204,-0.320791513,-1.626088381
4.35148,0.635928154,-0.278414935,-1.700840831
4.36148,0.57320106,-0.299603224,-1.762922168
4.37148,0.550930619,-0.324351996,-1.80144155
4.38148,0.588716984,-0.301226377,-1.832176805
4.39148,0.677449524,-0.239930406,-1.854691625
4.401481563,0.784892023,-0.154374376,-1.872528791
4.411481563,0.885667324,-0.06075491,-1.871551514
4.42148,0.960419774,0.031573005,-1.841112971
4.43148,1.008695602,0.136973441,-1.807428002
4.44148,1.025276184,0.267576426,-1.807515383
4.45148,0.988449752,0.387497991,-1.85788548
4.46148,0.899507761,0.449579358,-1.948834658
4.471481563,0.760963559,0.442737669,-2.060745239
4.481481563,0.609783113,0.368281931,-2.163859129
4.491481563,0.477679163,0.270403862,-2.245558023
4.50148,0.375996292,0.172438532,-2.304515362
4.51148,0.290527493,0.06593854,-2.334901571
4.52148,0.201114282,-0.05305801,-2.334883928
4.531478438,0.085713118,-0.181636408,-2.299890041
4.54148,-0.052098077,-0.312309206,-2.214945078
4.551483125,-0.191776782,-0.424341887,-2.068302393
4.561481563,-0.303268403,-0.51461035,-1.874099612
4.57148,-0.379609108,-0.596221924,-1.652791858
4.58148,-0.418739378,-0.708865464,-1.419860244
4.59148,-0.414812416,-0.839834988,-1.192443848
4.60148,-0.372173995,-0.931447327,-0.977087677
4.61148,-0.296601266,-0.951448798,-0.781296611
4.621481563,-0.21582742,-0.922685742,-0.614460588
4.631481563,-0.172194183,-0.896820009,-0.470348775
4.64148,-0.182334542,-0.929021299,-0.352347076
4.65148,-0.266180158,-1.046272516,-0.268309474
4.66148,-0.413049608,-1.259953141,-0.212895259
4.67148,-0.57971108,-1.53009522,-0.158528253
4.68148,-0.71668452,-1.775401235,-0.085241884
4.691481563,-0.819117904,-1.952656865,0.014905112
4.70148,-0.904796124,-2.095983267,0.132034153
4.71148,-0.972096026,-2.212815762,0.240750715
4.72148,-1.014961362,-2.274041891,0.345138848
4.73148,-1.024770021,-2.231228828,0.446350515
4.74148,-1.036725521,-2.105338335,0.555852473
4.751481563,-1.078351617,-1.944523692,0.679753363
4.76148,-1.159265161,-1.78358686,0.802607119
4.77148,-1.277947545,-1.669756532,0.906192422
4.78148,-1.416683793,-1.632458806,0.981189191
4.79148,-1.54646647,-1.625931263,1.022588372
4.80148,-1.657364607,-1.620503306,1.025921941
4.81148,-1.748889685,-1.59322381,0.973876238
4.82148,-1.834341049,-1.544441819,0.865456402
4.831481563,-1.917348862,-1.505643129,0.722444117
4.841481563,-1.955047965,-1.451084137,0.564701259
4.85148,-1.925429821,-1.364480972,0.397167116
4.86148,-1.854412317,-1.251854897,0.222250223
4.87148,-1.802698255,-1.128111005,0.052604225
4.88148,-1.798736334,-1.045923471,-0.082187556
4.89148,-1.800394416,-0.989095509,-0.176330611
4.901481563,-1.727282524,-0.857864261,-0.267785877
4.911481563,-1.574374199,-0.651723385,-0.407028228
4.92148,-1.405461311,-0.42394048,-0.647778928
4.93148,-1.300183058,-0.247260794,-0.975464523
4.94148,-1.308665276,-0.172927216,-1.312086225
4.95148,-1.435393691,-0.212179676,-1.577498436
4.96148,-1.611794114,-0.383379012,-1.714768529
4.971481563,-1.763341069,-0.666471422,-1.770444512
4.981481563,-1.777373433,-0.921219707,-1.813955545
4.99148,-1.618583441,-1.044370055,-1.920420647
5.00148,-1.359297276,-1.047529101,-2.114047527
5.01148,-1.116923451,-0.938987136,-2.359440804
5.02148,-0.980805218,-0.796289027,-2.573121548
5.03148,-0.976616442,-0.681411445,-2.697842598
5.04148,-1.066169262,-0.61974895,-2.710705757
5.051481563,-1.158916116,-0.607723653,-2.630455494
5.061481563,-1.170260668,-0.667902589,-2.496344328
5.07148,-1.062713504,-0.778294683,-2.360854626
5.08148,-0.837758064,-0.910625517,-2.268090248
5.09148,-0.52780503,-1.043759227,-2.229064703
5.10148,-0.195145264,-1.156420231,-2.216690302
5.11148,0.103375852,-1.244262695,-2.182778597
5.121481563,0.330774784,-1.311021566,-2.110417128
5.131481563,0.475776762,-1.355859041,-2.011212587
5.14148,0.552763224,-1.351460814,-1.913002968
5.151481563,0.593883157,-1.267632604,-1.839245439
5.16148,0.632175684,-1.096258759,-1.799242496
5.17148,0.678444386,-0.870989084,-1.781684399
5.18148,0.734609067,-0.646504879,-1.749814749
5.191481563,0.814824402,-0.447292984,-1.680647373
5.201481563,0.918985665,-0.26544714,-1.58741188
5.21148,1.034805655,-0.107250482,-1.497178316
5.22148,1.13596499,0.008098328,-1.431641221
5.23148,1.223353624,0.106081113,-1.386053205
5.24148,1.286848664,0.201498255,-1.361077547
5.251483125,1.312103629,0.286652863,-1.350239038
5.261481563,1.296570182,0.348873854,-1.340936422
5.27148,1.250772715,0.392576903,-1.326886535
5.28148,1.173018336,0.404794216,-1.300235391
5.29148,1.074791193,0.40629518,-1.257736564
5.301483125,0.992760718,0.440381467,-1.206790447
5.31148,0.947469413,0.511678159,-1.15621078
5.321478438,0.926961839,0.590601981,-1.103746176
5.331481563,0.91566956,0.654376268,-1.038034558
5.341481563,0.909351468,0.696962357,-0.954101682
5.35148625,0.903539479,0.73227036,-0.857270837
5.36148,0.906681061,0.75651294,-0.740944624
5.37148,0.926630199,0.761155546,-0.594005346
5.38148,0.979758024,0.750858068,-0.43758896
5.39148,1.050723076,0.730175972,-0.313827664
5.40148625,1.106626034,0.706596553,-0.243578151
5.411481563,1.11308372,0.68914324,-0.219283164
5.421481563,1.03663826,0.680870414,-0.2099282
5.43148,0.898041725,0.672946572,-0.168057755
5.44148,0.764070213,0.669700265,-0.078557268
5.45148625,0.70336771,0.653451264,0.034540065
5.46148,0.742777228,0.626014709,0.127740651
5.471481563,0.86289078,0.592748702,0.182194918
5.48148,1.005501628,0.552867949,0.215652883
5.49148,1.146820903,0.496284366,0.237975642
5.50148625,1.217698812,0.443331093,0.253020376
5.51148,1.187469602,0.396207184,0.273632705
5.52148,1.054074168,0.365018159,0.300877303
5.531478438,0.829467714,0.351875842,0.33826226
5.541478438,0.572590172,0.36271432,0.37899825
5.551481563,0.346709669,0.402891815,0.408913195
5.561481563,0.178494826,0.445931613,0.426383942
5.57148,0.088418379,0.488639832,0.432894021
5.58148,0.085486226,0.542884648,0.434255362
5.59148,0.124651417,0.60358721,0.445338219
5.60148,0.143047184,0.675931096,0.475584775
5.61148,0.106220737,0.760981023,0.528991818
5.621481563,0.022968533,0.857829332,0.600148916
5.631481563,-0.086777769,0.957016408,0.691237628
5.64148,-0.188513011,1.035678387,0.796446085
5.65148625,-0.260926723,1.10001123,0.91294682
5.66148,-0.312501192,1.14268446,1.036271811
5.67148,-0.339396715,1.183961511,1.170086145
5.68148,-0.333654583,1.235152006,1.320481181
5.691481563,-0.297945142,1.28171742,1.476129651
5.70148,-0.262235731,1.270076036,1.624133587
5.71148,-0.242181882,1.176962733,1.750006676
5.72148,-0.235392556,1.061683774,1.857012868
5.73148,-0.241885185,0.972218215,1.938048482
5.74148,-0.269635916,0.877342105,2.012504339
5.75148,-0.327022344,0.77733475,2.139494419
5.761481563,-0.389278233,0.698952019,2.313643456
5.771481563,-0.422107875,0.658914149,2.461071253
5.78148,-0.407150418,0.66798985,2.531599998
5.79148,-0.363534629,0.738152087,2.528510809
5.80148,-0.324840665,0.894935012,2.465818644
5.81148,-0.330024302,1.127709627,2.381920576
5.82148,-0.429560423,1.361234665,2.325424433
5.831481563,-0.633118212,1.442514658,2.381519318
5.84148,-0.84206903,1.352054238,2.528231621
5.85148,-0.958185732,1.19921577,2.672133923
5.86148,-0.916018605,1.077112436,2.738788128
5.87148,-0.750735939,1.04859376,2.691926003
5.88148,-0.591666639,1.143731713,2.545510292
5.89148,-0.543041766,1.324757218,2.333383083
5.901481563,-0.666803062,1.458868384,2.121866465
5.911481563,-0.965324163,1.440385342,2.002555847
5.92148,-1.301038265,1.308944583,1.979290605
5.93148,-1.513846278,1.168742299,2.011701345
5.94148,-1.527180552,1.100709319,2.023779154
5.95148,-1.368687153,1.149456382,1.956671119
5.96148,-1.190541387,1.374464273,1.783569455
5.971481563,-1.15118432,1.72269237,1.550201416
5.98148,-1.300060868,1.992153764,1.324285984
5.991481563,-1.585701466,2.068354845,1.209932089
6.00148,-1.83364296,2.040115356,1.189913154
6.01148,-1.958922625,1.946111917,1.191536307
6.02148,-1.881395102,1.85116601,1.137640476
6.03148,-1.646665812,1.796868801,0.987420022
6.04148,-1.35952425,1.776169181,0.781122088
6.051483125,-1.123992085,1.764859438,0.589205682
6.061481563,-1.020790696,1.728539228,0.481588691
6.07148,-0.993406475,1.619683027,0.464816093
6.08148,-0.952618182,1.489045143,0.49048987
6.09148,-0.830829084,1.412442565,0.48822096
6.10148,-0.665808201,1.408375978,0.425441444
6.11148,-0.535746276,1.437941909,0.321402371
6.12148,-0.497750461,1.440873981,0.200677961
6.131481563,-0.557545424,1.359716177,0.086830132
6.14148,-0.664010525,1.207069755,0.00832522
6.15148,-0.768730283,1.009812593,-0.010471975
6.16148,-0.811089396,0.792309642,0.036774088
6.17148,-0.749444366,0.60267967,0.111596353
6.18148,-0.593883157,0.466875583,0.162612319
6.191481563,-0.408162683,0.415562898,0.161408052
6.20148,-0.270822734,0.424603701,0.119345613
6.21148,-0.226491377,0.47968629,0.058590703
6.22148,-0.287542999,0.554613292,-0.001937315
6.23148,-0.418198347,0.626712799,-0.05375614
6.24148,-0.554072201,0.655737638,-0.088139124
6.251483125,-0.642577887,0.650641263,-0.091210909
6.261481563,-0.655144215,0.648110569,-0.060126591
6.271481563,-0.611720443,0.642822206,-0.009564404
6.28148,-0.55728364,0.641321242,0.037960909
6.29148,-0.51803118,0.613465786,0.080389865
6.30148,-0.507855892,0.564928174,0.107477374
6.31148,-0.528031886,0.517018855,0.117233768
6.32148,-0.565783381,0.430799603,0.114319064
6.331481563,-0.584022045,0.295641333,0.113900185
6.34148,-0.556568027,0.173433363,0.131056771
6.35148,-0.48162362,0.125646248,0.175091431
6.36148,-0.382087469,0.134529978,0.236736462
6.37148,-0.297735721,0.162717044,0.292237937
6.38148,-0.245358393,0.211202294,0.329779953
6.391478438,-0.241588473,0.269112319,0.34122932
6.401481563,-0.277664423,0.322763741,0.333078623
6.411481563,-0.325346828,0.375228345,0.328959644
6.421481563,-0.351038069,0.42860049,0.350392312
6.43148,-0.347268164,0.459632456,0.397655815
6.44148,-0.314700305,0.446141064,0.454047412
6.45148,-0.260158777,0.405806512,0.49448669
6.46148,-0.188774809,0.3568151,0.492165387
6.471478438,-0.112277031,0.342503399,0.457538068
6.48148,-0.049776789,0.35817647,0.422282398
6.491481563,-0.018814649,0.385839939,0.412717998
6.50148,-0.031887166,0.404532403,0.455321491
6.51148,-0.073007122,0.385839939,0.552675962
6.52148,-0.101072013,0.337197602,0.664132714
6.531478438,-0.092310466,0.257418603,0.782047153
6.54148,-0.022497294,0.186872408,0.86721921
6.551483125,0.107494831,0.165457219,0.904604137
6.561481563,0.270997286,0.192579627,0.901340365
6.57148,0.444587708,0.249634445,0.869976819
6.58148,0.59789741,0.34634313,0.821683526
6.59148,0.706055522,0.444430649,0.773844063
6.60148,0.766496241,0.535170317,0.742602706
6.61148,0.781052291,0.593219936,0.722793221
6.62148,0.759671986,0.616642296,0.695880234
6.63148,0.708062649,0.629295886,0.648686528
6.64148,0.636451781,0.632228076,0.567807972
6.65148,0.550476849,0.612558186,0.464711368
6.66148,0.466875583,0.565521598,0.343917131
6.67148,0.398039788,0.517839193,0.211882964
6.68148,0.341927439,0.473909259,0.08124508
6.691481563,0.297596097,0.418355405,-0.019809486
6.701481563,0.269950062,0.370725393,-0.086271621
6.71148,0.265586764,0.339850515,-0.121492371
6.72148,0.27022934,0.357059449,-0.138090447
6.73148,0.260106415,0.419402629,-0.143745318
6.74148,0.218445405,0.463262737,-0.142349049
6.751478438,0.146276042,0.455775291,-0.134006381
6.761481563,0.065886177,0.43758896,-0.132313415
6.771481563,0.00275762,0.425598532,-0.137950823
6.78148,-0.030665435,0.397987425,-0.14859733
6.79148,-0.047525316,0.363639355,-0.159540549
6.80148,-0.05099852,0.332851738,-0.16474162
6.81148,-0.050125856,0.311157286,-0.160971716
6.82148625,-0.049602259,0.313024789,-0.145944431
6.831481563,-0.051242866,0.345732272,-0.119014002
6.841481563,-0.076078899,0.323409498,-0.100251712
6.85148,-0.123045713,0.313338965,-0.100932389
6.86148,-0.157847583,0.363517165,-0.102206483
6.87148,-0.185947374,0.384338945,-0.105190992
6.88148,-0.226002678,0.370673031,-0.109606676
6.89148,-0.271573246,0.342259079,-0.108786374
6.901481563,-0.310337007,0.29888764,-0.08824385
6.911481563,-0.335591912,0.255830348,-0.044261549
6.921481563,-0.350601733,0.193260312,0.015812684
6.93148,-0.358333558,0.115628064,0.076619953
6.94148,-0.34815827,0.017034413,0.118717298
6.95148,-0.318295687,-0.082885683,0.138579145
6.96148,-0.269583553,-0.139591426,0.150866255
6.97148,-0.204988927,-0.155351758,0.176906571
6.98148,-0.135577172,-0.143884942,0.229179189
6.991481563,-0.082292274,-0.135036126,0.297142297
7.00148,-0.047752209,-0.156643301,0.362068564
7.01148,-0.030787608,-0.196314633,0.399331331
7.021478438,-0.019582594,-0.230872154,0.396468997
7.03148,0.004921828,-0.2340312,0.361405313
7.04148,0.032637656,-0.194324955,0.308504403
7.051481563,0.035971235,-0.128124624,0.229336262
7.061481563,0.004939282,-0.075991638,0.143047184
7.071481563,-0.055728361,-0.057194438,0.051818825
7.08148,-0.128700584,-0.070005156,-0.032114059
7.09148,-0.180659026,-0.09705776,-0.104719758
7.10148,-0.196593881,-0.103166409,-0.158772603
7.11148,-0.17896606,-0.077667154,-0.208758831
7.121481563,-0.126658544,-0.033632495,-0.254469007
7.131481563,-0.02872812,0.019949114,-0.306776524
7.14148,0.101054564,0.038065631,-0.387515455
7.15148,0.261293232,0.007173303,-0.486510515
7.16148,0.444657534,-0.045448374,-0.569989622
7.171489375,0.619958401,-0.088296205,-0.624391556
7.18148,0.738605857,-0.14290756,-0.650571465
7.191481563,0.777805984,-0.213855192,-0.654917359
7.20148,0.7269122,-0.267890573,-0.660450041
7.21148,0.575295448,-0.290632218,-0.677449524
7.22148,0.366920561,-0.298608392,-0.696525991
7.23148,0.168232292,-0.289689749,-0.718970954
7.24148,0.022113321,-0.287595361,-0.752359092
7.25148,-0.042917646,-0.299655586,-0.790424705
7.261481563,-0.045430921,-0.310773313,-0.831806481
7.271483125,-0.0055676,-0.331577659,-0.865805507
7.28148,0.054960418,-0.363796443,-0.892194867
7.29148,0.111404367,-0.403101236,-0.910381198
7.301483125,0.143919855,-0.463367462,-0.926350951
7.31148,0.151180416,-0.55819118,-0.957522511
7.321483125,0.121823981,-0.69074893,-1.01115644
7.331481563,0.042481314,-0.85707885,-1.091581225
7.34148,-0.058171824,-1.03058207,-1.194608092
7.351481563,-0.143884942,-1.162197232,-1.31140554
7.36148,-0.169698358,-1.219932795,-1.418725729
7.37148,-0.147323236,-1.192251801,-1.499290228
7.38148,-0.109554313,-1.145546794,-1.552819371
7.39148,-0.092938781,-1.130240321,-1.590850115
7.401481563,-0.11805407,-1.149875283,-1.646072388
7.411481563,-0.183311924,-1.191291928,-1.734543085
7.42148,-0.266668856,-1.241068721,-1.848548055
7.43148,-0.328802586,-1.274963021,-1.970057845
7.44148,-0.35042721,-1.269325614,-2.0751791
7.45148,-0.349833786,-1.27046001,-2.158780336
7.46148,-0.339484006,-1.309031844,-2.201680422
7.47148,-0.295920581,-1.330586672,-2.206462622
7.481481563,-0.241745546,-1.338632584,-2.198922873
7.491481563,-0.20457004,-1.359018087,-2.194140673
7.50148,-0.184167147,-1.373783588,-2.209133148
7.51148,-0.171042264,-1.378164291,-2.251335144
7.521478438,-0.158179194,-1.372684002,-2.295264959
7.531478438,-0.159435824,-1.361932755,-2.31671524
7.54148,-0.191165909,-1.374394417,-2.30458498
7.551481563,-0.234362811,-1.387798548,-2.252364874
7.561481563,-0.249616995,-1.36875701,-2.182202578
7.57148,-0.237242609,-1.316624045,-2.119475365
7.58148,-0.202597812,-1.253355861,-2.079542398
7.59148,-0.160814643,-1.1978544,-2.06495142
7.60148,-0.128176987,-1.174746156,-2.077133894
7.61148,-0.127321765,-1.213754296,-2.116298914
7.621481563,-0.145839706,-1.291962504,-2.169985294
7.631481563,-0.153047919,-1.360082746,-2.22740674
7.64148,-0.142034888,-1.417486548,-2.280848503
7.65148,-0.11541862,-1.458466887,-2.302874565
7.66148,-0.06963864,-1.473424435,-2.273675203
7.67148,-0.005602507,-1.433979988,-2.201820135
7.681478438,0.071488686,-1.369577289,-2.099858046
7.691481563,0.137392312,-1.310428143,-1.983811021
7.70148,0.188041776,-1.271611929,-1.865704656
7.71148,0.234188274,-1.252326131,-1.756900787
7.72148,0.26771605,-1.242081046,-1.682410121
7.73148,0.26396361,-1.233598709,-1.659493923
7.74148,0.232617483,-1.224732399,-1.658848166
7.751481563,0.20343557,-1.195533037,-1.64430964
7.761481563,0.194866017,-1.130921006,-1.581931472
7.77148,0.21912609,-1.039640307,-1.46227169
7.78148,0.29014352,-0.934239864,-1.299956083
7.79148,0.405090928,-0.803671777,-1.110395908
7.80148,0.539149642,-0.667466283,-0.919788539
7.81148,0.632123351,-0.558034122,-0.768014669
7.82148,0.657954216,-0.476928681,-0.642316043
7.831481563,0.619783878,-0.411548644,-0.552728295
7.84148,0.54602623,-0.34098497,-0.507646441
7.851481563,0.47935468,-0.264015943,-0.488727093
7.86148,0.438740879,-0.189699829,-0.484363765
7.87148,0.426767915,-0.133727133,-0.469057232
7.88148,0.443261266,-0.083007857,-0.429473162
7.89148,0.450190216,-0.034260813,-0.39742893
7.901481563,0.396242112,-0.019373154,-0.39776054
7.911481563,0.283633471,-0.030944688,-0.420292735
7.921481563,0.172630519,-0.078993604,-0.447345346
7.93148,0.107041046,-0.119153626,-0.438967764
7.94148,0.129538342,-0.127496302,-0.381738424
7.951522188,0.229580611,-0.101072013,-0.302360833
7.96148,0.321960896,-0.036145769,-0.264504641
7.97148,0.320669353,0.010629055,-0.2970725
7.98148,0.227870181,-0.015097098,-0.378823727
7.99148,0.111090206,-0.061034165,-0.459353209
8.00148,0.047891833,-0.06257005,-0.502707183
8.01148,0.053459436,-0.020385446,-0.491257817
8.021478438,0.117460661,0.00408407,-0.420310199
8.03148,0.175318316,0.016982054,-0.337546676
8.04148,0.157376334,-0.010838495,-0.269618452
8.051481563,0.084159777,-0.070860371,-0.218340695
8.061481563,0.004817109,-0.086620688,-0.181461886
8.07148,-0.036564648,-0.044034656,-0.145368472
8.08148,-0.015097098,0.011135201,-0.080930918
8.09148,0.054646257,0.043685593,0.017523106
8.10148,0.18727383,0.044052109,0.157725409
8.11148,0.338541508,0.054401912,0.295292258
8.12148,0.391948581,0.048624873,0.355820268
8.13148,0.299323976,-0.00720821,0.353027761
8.14148,0.100059725,-0.062081363,0.319744319
8.15148,-0.121195666,-0.060981803,0.287071764
8.16148,-0.28342402,0.023788838,0.288014233
8.17148,-0.371022105,0.144199103,0.325538814
8.18148,-0.394968003,0.209631503,0.405527264
8.191481563,-0.359939247,0.212214589,0.549167871
8.20148,-0.286129266,0.213349044,0.734556735
8.21148,-0.200974658,0.192719251,0.929859042
8.22148,-0.148440257,0.15154694,1.114305496
8.23148,-0.129136905,0.126047671,1.27396822
8.241483125,-0.147288337,0.127478853,1.401656508
8.25148,-0.169087499,0.139818326,1.505765319
8.261481563,-0.152349785,0.178843886,1.60823369
8.271481563,-0.07276278,0.261205971,1.728486776
8.28148,0.058677968,0.374861807,1.876089334
8.291484688,0.227119699,0.485463321,2.057097435
8.30148,0.408057988,0.577232718,2.249607325
8.31148,0.582747996,0.610481262,2.43450737
8.321478438,0.756408215,0.585365951,2.597905159
8.331481563,0.90374893,0.582608342,2.700774908
8.34148,1.032048106,0.613762498,2.744477987
8.351481563,1.123660445,0.648878515,2.743098974
8.36148,1.174013138,0.725498438,2.712381363
8.37148,1.156123519,0.781104624,2.672465563
8.38148,1.084390521,0.739600718,2.654331684
8.39148,0.992167294,0.710017383,2.661068678
8.401481563,0.895964742,0.712949514,2.669638157
8.411481563,0.827233732,0.722583771,2.664628983
8.421481563,0.805993021,0.758171022,2.646844149
8.43148,0.821840644,0.832975864,2.619040966
8.44148,0.856415629,0.896802545,2.566436768
8.45148,0.890362263,0.922650874,2.510237217
8.46148,0.870465517,0.937486172,2.465958357
8.47148,0.776846051,0.903085709,2.418747187
8.481481563,0.648250163,0.805678904,2.363769293
8.491481563,0.523476601,0.786009014,2.302752495
8.50148,0.406312644,0.900973856,2.246413231
8.51148,0.290510058,1.064546108,2.192447662
8.52148,0.1471138,1.255677104,2.113366842
8.531478438,-0.000418879,1.401569247,2.00306201
8.54148625,-0.143186808,1.489621043,1.863732338
8.551481563,-0.271852493,1.466652513,1.762712717
8.56148,-0.367653608,1.371130705,1.723023891
8.57148,-0.44909066,1.218327045,1.72883594
8.58148,-0.515587687,1.012814522,1.777181506
8.59148,-0.558086455,0.886260748,1.831443787
8.60148,-0.60552454,0.871530175,1.840100646
8.61148,-0.678112745,0.870290995,1.787304401
8.62148,-0.753650606,0.910398662,1.693493009
8.63148,-0.819990575,0.960803747,1.588668466
8.64148,-0.873275459,0.991940439,1.49958694
8.65148,-0.898303509,0.993825376,1.463790178
8.66148,-0.887307942,0.986285567,1.513182998
8.67148,-0.880047381,0.93867296,1.604533553
8.681478438,-0.894149601,0.773704469,1.717386484
8.691481563,-0.887482464,0.510613501,1.822821856
8.70148,-0.814370632,0.223663941,1.884554148
8.71148,-0.653782904,-0.008307767,1.865233421
8.72148,-0.394810915,-0.131702542,1.748191595
8.73148,-0.071994834,-0.138090447,1.547059894
8.74148,0.228899926,-0.068835787,1.290287018
8.75148,0.470348775,-0.00827286,1.025695086
8.761481563,0.667920053,0.032916911,0.788295388
8.771481563,0.838124573,0.110234998,0.582800329
8.78148,0.970926642,0.211952791,0.397167116
8.791484688,1.073255301,0.293791264,0.21617648
8.80148,1.153557897,0.350793719,0.016336281
8.81148,1.203003049,0.394566596,-0.20877628
8.82148,1.211363196,0.401652634,-0.4461236
8.831481563,1.191850424,0.369538575,-0.682982266
8.84148,1.151638031,0.341019869,-0.916646898
8.851481563,1.114200711,0.330233753,-1.13390553
8.86148,1.097445607,0.348664433,-1.340168476
8.87148,1.108510971,0.416173756,-1.530636311
8.88148,1.127988815,0.51143384,-1.684836149
8.891483125,1.128861547,0.590252876,-1.787286997
8.901481563,1.077409148,0.640291512,-1.838198185
8.911481563,0.960594296,0.626154304,-1.841636539
8.92148,0.799168825,0.555451035,-1.799067974
8.93148,0.64910537,0.454064846,-1.725205541
8.94148,0.559255838,0.34679693,-1.628304958
8.95148,0.549045682,0.243403614,-1.517493963
8.96148,0.617148399,0.138526782,-1.397851706
8.971478438,0.739007294,0.038920842,-1.279849887
8.981481563,0.855857074,-0.034103733,-1.181797385
8.991481563,0.90078187,-0.109536864,-1.11650455
9.00148,0.818891048,-0.225793242,-1.091040254
9.01148,0.628423274,-0.417901635,-1.087619424
9.021478438,0.401408285,-0.595070004,-1.100936294
9.03148,0.184079871,-0.653713048,-1.153261185
9.04148,-0.025080381,-0.621773541,-1.246060371
9.051481563,-0.221796438,-0.561210632,-1.37762332
9.061481563,-0.425109833,-0.518310428,-1.565315962
9.07148,-0.65467298,-0.503492594,-1.780288219
9.08148,-0.891950488,-0.557056725,-1.996045828
9.09148,-1.131688952,-0.685949326,-2.208487272
9.10148,-1.375773191,-0.884375811,-2.403231144
9.11148,-1.569609523,-1.10524714,-2.549367428
9.12148,-1.671571612,-1.298071146,-2.642410994
9.131481563,-1.647049785,-1.375459075,-2.68663764
9.14148,-1.507946968,-1.302172661,-2.66754365
9.151484688,-1.301404715,-1.104479313,-2.58059144
9.16148,-1.074215293,-0.823603392,-2.425798178
9.17148,-0.861948311,-0.531749487,-2.208801508
9.18148,-0.692476809,-0.297473907,-1.947874665
9.191481563,-0.581002653,-0.179664195,-1.671763659
9.20148,-0.516844332,-0.184830368,-1.414676666
9.21148,-0.476038545,-0.287089199,-1.19567275
9.22148,-0.411426455,-0.426366478,-1.032152772
9.23148,-0.305659503,-0.558976591,-0.936543643
9.24148,-0.164165676,-0.641495764,-0.891025484
9.25148,-0.017802358,-0.662142992,-0.872926414
9.261481563,0.083426736,-0.655458391,-0.862157762
9.271481563,0.108699106,-0.649053037,-0.842959106
9.28148,0.057508599,-0.653590918,-0.815766871
9.29148,-0.050160762,-0.690364957,-0.762290001
9.30148,-0.176121175,-0.754540741,-0.673976362
9.31148,-0.27761206,-0.816412687,-0.569378734
9.32148,-0.321664184,-0.83740896,-0.471832305
9.331481563,-0.328680396,-0.869313598,-0.426488668
9.34148,-0.324543983,-0.96687752,-0.452773303
9.351481563,-0.274453014,-1.003913403,-0.48207739
9.36148,-0.170815378,-0.969181359,-0.474607378
9.37148,-0.04548328,-0.92114985,-0.420921057
9.38148,0.104807019,-0.820357084,-0.317998976
9.39148,0.211027756,-0.699458122,-0.220627069
9.401478438,0.230697617,-0.597391307,-0.125698611
9.411481563,0.175213605,-0.468463808,-0.032340951
9.42148,0.052290063,-0.345191211,0.018849555
9.43148,-0.092013761,-0.259547919,0.030368729
9.44148,-0.207100764,-0.227625847,-0.012671091
9.45148,-0.236631736,-0.240192205,-0.075572759
9.46148,-0.14824827,-0.196995318,-0.103550382
9.47148,0.006056292,-0.116710164,-0.106220737
9.481481563,0.1569051,-0.06462954,-0.073932149
9.491481563,0.282830596,-0.044505894,-0.014381513
9.50148,0.384269148,-0.079045959,0.03239331
9.51148,0.443941951,-0.154496551,0.039182641
9.52148,0.423259795,-0.232355684,-0.001239184
9.531478438,0.31323424,-0.352992833,-0.091385439
9.54148,0.187640354,-0.427274048,-0.193975896
9.551481563,0.1086642,-0.398545921,-0.310825676
9.56148,0.086323984,-0.300772578,-0.446141064
9.57148,0.100810215,-0.161146253,-0.568523526
9.58148,0.12561135,-0.038309976,-0.660764217
9.59148,0.11657054,-0.005899213,-0.718726575
9.60148,0.053476889,-0.075991638,-0.729634881
9.61148,-0.055693455,-0.197815612,-0.734609067
9.62148,-0.178390101,-0.293581843,-0.75103265
9.631481563,-0.273370922,-0.335033417,-0.799500406
9.64148,-0.336534381,-0.311977595,-0.875579298
9.65148,-0.392542005,-0.261136174,-0.981049597
9.66148,-0.433103442,-0.212773085,-1.080533385
9.67148,-0.442353696,-0.164357662,-1.150625706
9.68148,-0.424813151,-0.092921332,-1.1793015
9.691481563,-0.40175733,-0.010681415,-1.161516666
9.70148,-0.404200792,0.060650192,-1.121042371
9.71148,-0.458480537,0.116535634,-1.089940667
9.72148,-0.558662415,0.170937553,-1.072085977
9.73148,-0.667920053,0.176173538,-1.073534608
9.74148,-0.740665376,0.136816353,-1.084128737
9.75148,-0.728308439,0.098401666,-1.085839152
9.761481563,-0.63954097,0.05211553,-1.056779385
9.771481563,-0.500525534,-0.009896017,-0.981136858
9.78148,-0.340705723,-0.049549896,-0.847776234
9.79148,-0.189123884,-0.031817351,-0.672300816
9.80148,-0.07918559,0.023317598,-0.479145229
9.81148,-0.023998277,0.083863072,-0.291312903
9.82148,-0.009616764,0.132121429,-0.134844139
9.831481563,-0.012705997,0.182735965,-0.0283616
9.841481563,-0.025987953,0.229755148,0.035133477
9.851481563,-0.048799407,0.265098065,0.085957468
9.86148,-0.070074968,0.300301343,0.153152645
9.87148,-0.072326444,0.337337226,0.240558729
9.88148,-0.052464597,0.361440241,0.332799375
9.89148,-0.012758357,0.364180386,0.42018801
9.90148,0.061453044,0.354982525,0.511241853
9.911481563,0.158737689,0.352312148,0.586413145
9.921481563,0.251501948,0.344562888,0.629173756
9.93148,0.314752668,0.332537591,0.639732957
9.94148,0.336796194,0.309987932,0.632751644
9.95148,0.321384937,0.295030445,0.622419298
9.96148,0.283162206,0.285204262,0.614792228
9.97148,0.238673776,0.279863536,0.612977087
9.98148,0.182229832,0.271363795,0.620010734
9.99148,0.141842902,0.240960151,0.637813091
10.00148,0.133412972,0.208200321,0.663678885
10.01148,0.156660751,0.184044972,0.701919079
10.02148,0.194551855,0.186610609,0.744365454
10.03148,0.245585278,0.208985731,0.789063334
10.04148,0.302360833,0.263754159,0.836693406
10.05148156,0.350322485,0.338332087,0.877062857
10.06148156,0.366972923,0.396730781,0.906052768
10.07148,0.349484742,0.431550115,0.931447327
10.08148,0.304978818,0.441934824,0.952338874
10.09148,0.244014487,0.435913444,0.971136093
10.10148,0.167080373,0.440852702,0.990474343
10.11148625,0.084439032,0.469563395,0.995343804
10.12148156,0.00726057,0.477347553,0.978466511
10.13148,-0.042865288,0.475218236,0.943071187
10.14148,-0.05487315,0.482356638,0.900956392
10.15148,-0.03169518,0.516285837,0.867952228
10.16148,0.010611602,0.573166132,0.855333507
10.17148,0.060336031,0.604721665,0.859295428
10.18148,0.082065381,0.595000207,0.872612238
10.19148156,0.062151175,0.559203506,0.90214324
10.20148,0.008237954,0.520614266,0.943612278
10.21148625,-0.064088494,0.491659254,0.981538236
10.22148,-0.143221721,0.466386884,1.002691627
10.23148,-0.206559718,0.448095828,1.007299304
10.24148,-0.235340193,0.448479801,1.004559159
10.25148,-0.215391085,0.487941682,0.999602437
10.26148156,-0.177133471,0.545083761,0.9968099
10.27148156,-0.146904364,0.58981657,0.997281134
10.28148156,-0.139661252,0.615001678,1.003302574
10.29148,-0.156486213,0.594232261,1.00682807
10.30148,-0.18819885,0.547439992,0.998363256
10.31148,-0.224414438,0.502794445,0.97417295
10.32148,-0.251885921,0.472652614,0.937433779
10.33148156,-0.261415422,0.447554767,0.88907069
10.34148,-0.240820527,0.409855664,0.838368893
10.35148156,-0.196646243,0.396922767,0.786131203
10.36148625,-0.145508096,0.393414676,0.749444366
10.37148,-0.097110122,0.381232262,0.73693037
10.38148,-0.046565384,0.372749954,0.740333736
10.39148,-0.00403171,0.382104933,0.740106881
10.40148,0.019111356,0.394112796,0.724782884
10.41148313,0.030490901,0.385735214,0.692546666
10.42148156,0.025569074,0.374757081,0.653573453
10.43148,-1.75E-05,0.339536339,0.606379747
10.44148,-0.038432151,0.274627566,0.559622347
10.45148,-0.064821526,0.200974658,0.521085501
10.46148,-0.068067841,0.140149936,0.49869293
10.47148,-0.047577675,0.096691243,0.494783401
10.48148156,-0.007522369,0.082274817,0.496074945
10.49148156,0.037978366,0.094404861,0.492741346
10.50148,0.070860371,0.125733525,0.477347553
10.51148,0.075572759,0.151180416,0.44954446
10.52147844,0.050614547,0.167795956,0.416697353
10.53148,0.011850785,0.184097335,0.380743563
10.54148,-0.031869713,0.18875736,0.346238405
10.55148156,-0.076305792,0.183835536,0.316253662
10.56148,-0.114371426,0.17146115,0.294733763
10.57148,-0.136240408,0.162909031,0.274103969
10.58148,-0.143431157,0.151843637,0.252828389
10.59148,-0.142837748,0.145874619,0.231325939
10.60148,-0.141790554,0.137235239,0.209212616
10.61148156,-0.137985736,0.12505284,0.185511053
10.62148,-0.132732287,0.115383714,0.162751958
10.63148156,-0.131440744,0.105627328,0.14437364
10.64148,-0.134983763,0.083531454,0.134372905
10.65148,-0.144111842,0.056670841,0.126484007
10.66148,-0.149644524,0.026092673,0.114231803
10.67148,-0.147323236,0.002775074,0.097511545
10.68148,-0.142383963,-0.003525565,0.077108644
10.69148156,-0.136955991,-0.022095868,0.05466371
10.70148,-0.134652153,-0.026668631,0.039235003
10.71148,-0.128281698,-0.029810224,0.023684118
10.72148,-0.121684358,-0.030805061,0.009232792
10.73148,-0.118699841,-0.043004911,-0.001466077
10.74148,-0.112538829,-0.040421825,-0.010594148
10.75148,-0.101264,-0.019530235,-0.019181168
10.76148156,-0.087109379,0.018448129,-0.035901424
10.77148,-0.082047924,0.060510565,-0.056932639
10.78148156,-0.090250976,0.093305305,-0.073426001
10.79148,-0.101002201,0.104737207,-0.078295469
10.80148,-0.118228599,0.11081095,-0.077562429
10.81148,-0.136013508,0.099064887,-0.070616022
10.82148,-0.141808003,0.071767941,-0.067771137
10.83148156,-0.126693457,0.050858893,-0.074455746
10.84148,-0.097075209,0.038641591,-0.085206971
10.85148156,-0.054524086,0.044052109,-0.095836028
10.86148,-0.01685988,0.060283672,-0.098960169
10.87148,0.000837758,0.076131262,-0.090565138
10.88148,-0.003263766,0.073460907,-0.070685834
10.89148,-0.032899458,0.070581116,-0.051138148
10.90147844,-0.069743358,0.053372167,-0.030089477
10.91148156,-0.096516706,0.041678462,-0.014922565
10.92148,-0.10348057,0.035342917,-0.013997541
10.93148,-0.091507614,0.024190264,-0.022270402
10.94148,-0.071174525,0.02883284,-0.032864548
10.95148,-0.040631264,0.021589722,-0.037297685
10.96148,-0.006265732,0.0320617,-0.0320617
10.97148,0.003508112,0.061889376,-0.006038839
10.98148156,-0.003333579,0.064891338,0.03185226
10.99148156,-0.012042772,0.070336767,0.054785885
11.00148,-0.019024089,0.075799651,0.046408303
11.01148156,-0.026546458,0.07276278,0.017523106
11.02148,-0.037646752,0.069115035,-0.003839724
11.03148,-0.041381758,0.063599795,-0.013962634
11.04148,-0.03572689,0.076532684,-0.011955505
11.05148313,-0.025272368,0.083758354,-0.001239184
11.06148156,-0.014695672,0.08379326,0.010471975
11.07148,-0.008970993,0.075450584,0.018325957
11.08148,-0.017592918,0.06503097,0.021711895
11.09148,-0.032724924,0.054768432,0.018727383
11.10148,-0.046530478,0.039235003,0.009721484
11.11148,-0.049602259,0.027646014,-0.001815142
11.12148,-0.039426986,0.026476644,-0.010105456
11.13148,-0.0257087,0.035116024,-0.011100294
11.14148,-0.015166911,0.039357174,-0.005532694
11.15148,-0.013875367,0.049637165,-0.002617994
11.16148,-0.02432989,0.055885442,0.000541052
11.17148,-0.03757694,0.053110369,0.005026548
11.18147844,-0.04696681,0.041015238,0.018657569
11.19148156,-0.04621632,0.026720991,0.036547195
11.20148,-0.03424336,0.022671826,0.063285641
11.21148,-0.012479104,0.029810224,0.09574876
11.22148,0.010437069,0.047001716,0.122434847
11.23148,0.027366763,0.065694191,0.135716796
11.24148,0.031101767,0.073652893,0.133971468
11.25152375,0.02300344,0.074263759,0.123028256
11.26148156,0.009075712,0.077161007,0.11639601
11.27148,-0.001099557,0.077440262,0.124267444
11.28148,-0.003089233,0.079220496,0.150656819
11.29148,0.007120943,0.084369212,0.192998514
11.30148,0.030752702,0.091106184,0.245393291
11.31148,0.063442715,0.093462378,0.300318807
11.32147844,0.092066117,0.105993845,0.345226139
11.33148156,0.109501958,0.130027026,0.372069299
11.34148,0.113202058,0.143274084,0.376240611
11.35148313,0.099937551,0.147986472,0.356850028
11.36148,0.069376841,0.141493842,0.326027513
11.37148,0.031991884,0.124686323,0.299428672
11.38148,0.001186824,0.107616998,0.283773094
11.39148,-0.014730579,0.093287848,0.280648947
11.40147844,-0.013735741,0.085364051,0.285658032
11.41148156,0.000680678,0.08414232,0.291679412
11.42148,0.023457225,0.083932884,0.294087976
11.43148,0.049567349,0.090669855,0.289323241
11.44148,0.066479594,0.098715819,0.281050354
11.45148,0.07902851,0.104283422,0.270491123
11.46148,0.081925757,0.112992615,0.261799395
11.47148,0.077003926,0.113289319,0.259251207
11.48148,0.064507365,0.103218772,0.259582818
11.49148,0.04639085,0.075852007,0.260001689
11.50148,0.02321288,0.058765236,0.25930357
11.51148,0.005829399,0.03939208,0.259251207
11.52147844,-0.00132645,0.027523842,0.256511033
11.53148,0.000226893,0.046181411,0.246580109
11.54148,0.010419616,0.079621918,0.227294222
11.55148156,0.017575465,0.111631259,0.196750969
11.56148,0.01298525,0.133535147,0.158545703
11.57148,-0.00286234,0.125558987,0.119048908
11.58148,-0.02893756,0.107145764,0.088121675
11.59148,-0.059899699,0.094544485,0.068643801
11.60148,-0.081821032,0.079377577,0.05742133
11.61148,-0.092519902,0.066915922,0.046984263
11.62148156,-0.083287112,0.065676741,0.038379788
11.63148156,-0.066689029,0.069324479,0.030141836
11.64148,-0.050928708,0.06850417,0.02734931
11.65148,-0.049008846,0.067107908,0.02607522
11.66148,-0.060388394,0.059061941,0.024678955
11.67148,-0.081995569,0.048014008,0.018692477
11.68148,-0.113202058,0.028431414,0.008988446
11.69148156,-0.136275306,0.010227629,0.000907571
11.70148,-0.142506137,0.008988446,-0.009634217
11.71148,-0.130027026,0.001291544,-0.017261306
11.72148,-0.101962134,-0.006248279,-0.017837266
11.73148156,-0.066584311,-0.003543018,-0.004363323
11.74148,-0.040962879,-0.000401426,0.012566371
11.75148,-0.032655109,0.006754424,0.034470253
11.76148156,-0.038868483,0.024068091,0.052080624
11.77148156,-0.058119465,0.024766222,0.061784655
11.78148,-0.079168133,0.012845623,0.06096435
11.79148,-0.101037107,0.006946411,0.051958453
11.80148,-0.109920837,-0.007417649,0.044139378
11.81148,-0.111177474,-0.017313667,0.03757694
11.82147844,-0.092258103,-0.014957472,0.034487706
11.83148313,-0.058346357,0.014905112,0.044296455
11.84148,-0.016807521,0.054611351,0.059498273
11.85148156,0.019250982,0.099012531,0.076270886
11.86148,0.042324234,0.13039355,0.090477869
11.87148,0.050282937,0.135053575,0.101159282
11.88148,0.042935099,0.130096838,0.113167152
11.89148,0.029373892,0.129346356,0.131440744
11.90148,0.025150195,0.132278502,0.157498509
11.91148156,0.037384953,0.129730329,0.17919296
11.92148,0.064961158,0.139067829,0.194080606
11.93148469,0.093619458,0.180728838,0.204936564
11.94147844,0.106691979,0.240488917,0.218026534
11.95148,0.094684109,0.26066491,0.227695659
11.96148,0.066200338,0.26293385,0.226822987
11.97147844,0.028047441,0.259408295,0.220487446
11.98148781,-0.002199115,0.243752688,0.214500964
11.99148,-0.026406832,0.224135175,0.20900318
12.00148,-0.043807764,0.22722441,0.208793744
12.01148,-0.057491146,0.250629276,0.215879768
12.02148,-0.070458941,0.267506599,0.23073253
12.03148313,-0.078312926,0.276756853,0.253893048
12.04148,-0.086393796,0.276285619,0.281137645
12.05148156,-0.099955007,0.260630012,0.307614267
12.06148156,-0.11508701,0.227678195,0.327319056
12.07148,-0.121893793,0.191253185,0.339152366
12.08148156,-0.11969468,0.146852002,0.345540285
12.09148,-0.106308006,0.098785639,0.356832564
12.10148,-0.078679442,0.079203039,0.364005864
12.11148,-0.039252456,0.08470083,0.362784147
12.12148156,-0.00275762,0.106168374,0.346081346
12.13148,0.018308504,0.128613308,0.318121165
12.14148,0.022130774,0.154950336,0.274086505
12.15148,0.006370452,0.176033914,0.217363298
12.16148,-0.023317598,0.184760556,0.153972939
12.17148,-0.063931413,0.194028258,0.105260804
12.18148,-0.096900679,0.183085039,0.078522362
12.19148156,-0.120881505,0.202283666,0.074385934
12.20148156,-0.139661252,0.244991869,0.079674281
12.21148,-0.146345854,0.375193417,0.126850531
12.22148,-0.158249006,0.495341897,0.178931147
12.23148,-0.190973923,0.469109595,0.188670099
12.24148,-0.204098806,0.440503657,0.138352245
12.25148313,-0.185964838,0.415266186,0.072850041
12.26148,-0.14529866,0.374966532,0.02391101
12.27148156,-0.085259333,0.349502176,0.016423548
12.28148,-0.022811454,0.327598304,0.038938295
12.29148,0.038048178,0.311942697,0.063495077
12.30148,0.09499827,0.313600749,0.071837753
12.31148,0.120846599,0.314508319,0.051068332
12.32148,0.110409528,0.333898932,0.010105456
12.33148,0.056478854,0.401984245,-0.037629299
12.34148156,-0.017697638,0.499408513,-0.086166903
12.35148,-0.104981557,0.614408255,-0.133430421
12.36148,-0.186104462,0.650850713,-0.165055782
12.37148,-0.24712117,0.634654045,-0.187064394
12.38148,-0.270997286,0.639226854,-0.196768418
12.39148,-0.249616995,0.631337941,-0.186593145
12.40148,-0.186470971,0.621808469,-0.158231556
12.41148156,-0.090757124,0.65945518,-0.105225898
12.42148,0.018971728,0.737227082,-0.030421089
12.43148,0.124075457,0.805643976,0.049864057
12.44148,0.210975394,0.851441443,0.124215081
12.45148,0.271852493,0.864583731,0.176714584
12.46148,0.310860604,0.848421991,0.196349546
12.47148,0.326254398,0.825086951,0.18465583
12.48148,0.330478102,0.828682303,0.159941971
12.49148156,0.325119942,0.851406515,0.123272605
12.50148,0.318103701,0.890048087,0.087423541
12.51148,0.311925232,0.968587935,0.056758106
12.52148,0.298224419,1.060531855,0.032724924
12.53147844,0.278380007,1.148601174,0.014765485
12.54148,0.256668121,1.227734447,0.010821042
12.55148156,0.226020142,1.267056704,0.007243116
12.56148,0.194918364,1.276097536,0.009948377
12.57148,0.162996292,1.267580271,-0.000122173
12.58148,0.139975399,1.203264832,-0.021816615
12.59148,0.118926734,1.092174649,-0.053895768
12.60148,0.10183996,0.982812345,-0.091437802
12.61148,0.084753186,0.917763948,-0.119188532
12.62148156,0.076934114,0.914168537,-0.127077416
12.63148156,0.09499827,0.990893245,-0.109624133
12.64148,0.141790554,1.126836896,-0.081087999
12.65148,0.196646243,1.215360045,-0.037768926
12.66148,0.240977615,1.202095509,0.0082205
12.67148,0.256999731,1.106783032,0.039618973
12.68148,0.251973182,0.987734199,0.069865532
12.69148156,0.23460716,0.859382689,0.097720988
12.70148,0.228498504,0.783775032,0.117338486
12.71148,0.237068072,0.777003109,0.121492371
12.72148,0.249704257,0.789674222,0.112748273
12.73148,0.254573733,0.794875324,0.099413954
12.74148,0.246457949,0.793129981,0.089832097
12.75148,0.218986467,0.773809195,0.07623598
12.76148156,0.177639604,0.775048375,0.064071037
12.77148,0.138195172,0.788330317,0.051644292
12.78148,0.105766952,0.800791979,0.03960152
12.79148,0.082536623,0.815784335,0.03031637
12.80148,0.074944437,0.824266672,0.014503686
12.81148,0.074403383,0.802327871,-0.010332349
12.82148,0.075852007,0.744714558,-0.038152896
12.83148,0.06832964,0.670852184,-0.052831117
12.84148,0.052551862,0.601737142,-0.044750243
12.85148156,0.036512289,0.54318136,-0.016824974
12.86148,0.019390607,0.511643291,0.021607175
12.87148,0.009808751,0.530091405,0.06462954
12.88148,0.013665928,0.579676211,0.102573
12.89148,0.030892327,0.638738155,0.139643788
12.90147844,0.053075463,0.695426464,0.172281444
12.91148156,0.064297929,0.71247828,0.195633948
12.92148,0.034906585,0.675267875,0.202458188
12.93148,-0.197867975,0.611860096,0.243944675
12.94148,-0.296269625,0.366414428,0.221831352
12.95148,-0.212999985,0.222913444,0.130149201
12.96148,-0.069132492,0.138614044,0.038327429
12.97148,0.052185345,0.056827921,-0.04330162
12.98148,0.137147978,0.003944444,-0.102049403
12.99148625,0.181688771,-0.073565625,-0.126082584
13.00148,0.179664195,-0.170536116,-0.119589962
13.01148,0.130149201,-0.290160984,-0.105836764
13.02148,0.060231313,-0.407743812,-0.101595618
