Time (s),Gyroscope x (rad/s),Gyroscope y (rad/s),Gyroscope z (rad/s)
0,-0.343288809,-0.278851241,-0.155247033
0.009998437,-0.310808241,-0.412491113,-0.09630727
0.019998437,-0.250891089,-0.514749944,-0.064821526
0.029998437,-0.192125842,-0.587844372,-0.059934605
0.039998437,-0.116029486,-0.649611533,-0.082920596
0.050014062,-0.022427481,-0.702355385,-0.122347578
0.06,0.058835048,-0.768067062,-0.167097822
0.07,0.133587494,-0.856834471,-0.203121424
0.08,0.203854457,-0.953735173,-0.217834547
0.089998437,0.254713356,-1.024333715,-0.200573236
0.099998437,0.265656561,-1.03902936,-0.156486213
0.109998437,0.250384927,-0.999497712,-0.095033176
0.119998437,0.230243832,-0.935164869,-0.031154128
0.13,0.220749244,-0.866887569,0.016632987
0.139998437,0.222878546,-0.802607119,0.042376593
0.149998437,0.251187772,-0.741590381,0.054541539
0.159998437,0.294646472,-0.672335744,0.046198864
0.169998437,0.342485964,-0.602260768,0.001518436
0.179998437,0.380865753,-0.522411942,-0.069132492
0.189998437,0.390465051,-0.456298888,-0.149243101
0.2,0.356675476,-0.443715066,-0.223594129
0.21,0.296932876,-0.49869293,-0.274924248
0.219998437,0.249145746,-0.606536806,-0.29571113
0.230003125,0.255586028,-0.734975576,-0.289253414
0.239998437,0.307928443,-0.823481262,-0.272882223
0.249998437,0.383518636,-0.839485943,-0.251781195
0.259996875,0.46410051,-0.790965736,-0.220365271
0.27,0.533058465,-0.695496261,-0.177552342
0.280003125,0.562711596,-0.607741117,-0.124040551
0.289998437,0.54079026,-0.585051835,-0.062029
0.299998437,0.480733484,-0.620464563,-0.008988446
0.309998437,0.39025563,-0.67038095,0.000174533
0.319998437,0.295327157,-0.684081793,-0.05763077
0.329998437,0.227974907,-0.656069279,-0.189961642
0.34,0.21914354,-0.618422508,-0.344458193
0.35,0.278414935,-0.610446334,-0.468568534
0.36,0.393501937,-0.617043674,-0.539743066
0.369998437,0.546724379,-0.663766146,-0.534018397
0.380004687,0.727104187,-0.737611055,-0.442056984
0.389998437,0.908007562,-0.825401127,-0.271485955
0.399998437,1.076396942,-0.935845554,-0.031904619
0.41,1.156350493,-1.057844043,0.152821034
0.42,1.099086165,-1.256061077,0.2125462
0.43,1.014106154,-1.274404526,0.116448365
0.439998437,0.945008516,-1.197836876,-0.09375909
0.449998437,0.865473866,-1.098039031,-0.326062411
0.459998437,0.835977793,-0.94584626,-0.498291492
0.469998437,0.911323667,-0.736057699,-0.552728295
0.479998437,1.017404795,-0.553461373,-0.564125299
0.49,1.114218235,-0.364110589,-0.546113551
0.500007812,1.187661648,-0.144914687,-0.479092866
0.509998437,1.238782287,0.02576106,-0.355104685
0.519998437,1.260511637,0.09665633,-0.187448367
0.529998437,1.206336617,-0.033423055,-0.029862583
0.539998437,1.113851666,-0.23438026,0.028745573
0.550001562,1.01421082,-0.403136164,-0.028972466
0.56,0.904010713,-0.494469225,-0.179925993
0.57,0.788941205,-0.502061427,-0.341875106
0.579998437,0.714607596,-0.442214072,-0.457677692
0.59000625,0.690033376,-0.350793719,-0.478918344
0.599998437,0.739687979,-0.233437791,-0.385839939
0.609998437,0.868563116,-0.094387405,-0.209788576
0.619998437,1.009498477,0.038187806,-0.00408407
0.63,1.091162443,0.126222208,0.2003638
0.640003125,1.053777456,0.09499827,0.381511509
0.649998437,0.877254844,-0.079464838,0.526373863
0.659998437,0.661497235,-0.282464087,0.6486516
0.669998437,0.531382918,-0.435564369,0.739618182
0.679998437,0.537526488,-0.526513457,0.829345524
0.689998437,0.647307694,-0.53942889,0.945322692
0.7,0.813183784,-0.506686509,1.096485615
0.71,0.977698565,-0.407935798,1.289152503
0.719998437,1.119576335,-0.261275798,1.559800744
0.729998437,1.234436512,-0.115977131,1.877380848
0.74,1.314320207,0.048694685,2.201610565
0.749996875,1.357290149,0.246615022,2.509696245
0.759998437,1.379822373,0.45238933,2.786854506
0.77,1.374603868,0.644567549,3.013083935
0.78,1.290042639,0.791786075,3.173968554
0.790001562,1.115090847,0.846030891,3.288776159
0.799998437,0.92329663,0.833342373,3.390825748
0.809998437,0.79518944,0.818681598,3.496348381
0.819998437,0.760230541,0.828228533,3.603441715
0.829998437,0.800739586,0.888285339,3.701616526
0.84,0.867306471,0.969478011,3.774291992
0.85,0.914849222,1.023984671,3.815795898
0.86,0.922999918,1.032152772,3.78743434
0.869998437,0.92478013,0.972584724,3.695822001
0.879998437,0.935461581,0.934204936,3.54598546
0.889998437,0.929021299,0.965428889,3.34803009
0.899998437,0.871949017,1.019062877,3.166341305
0.909998437,0.781244278,1.085559845,3.071692228
0.92,0.693960369,1.215970874,3.063105106
0.93,0.633135617,1.395425677,3.099669933
0.939998437,0.609660983,1.542295098,3.135955334
0.949998437,0.594127536,1.658219814,3.100751877
0.959998437,0.553880215,1.688640952,2.983570576
0.969998437,0.480908006,1.610048771,2.8227036
0.979998437,0.416086495,1.493705153,2.644575119
0.99,0.380830854,1.381689906,2.477233171
1,0.376013726,1.294685245,2.32664609
1.009998437,0.418948829,1.266690135,2.19124341
1.019998437,0.487016678,1.277214527,2.048667431
1.029998437,0.56354934,1.252675176,1.911536932
1.039998437,0.650396943,1.182495475,1.776884794
1.049998437,0.763040483,1.119611263,1.623278379
1.06,0.889611781,1.100622058,1.439076304
1.07,1.007142186,1.136924982,1.20057714
1.08,1.092419028,1.170173407,0.911271334
1.089998437,1.162703395,1.174938202,0.601073921
1.099998437,1.239655018,1.187696576,0.29843384
1.109998437,1.314931035,1.229305148,0.018727383
1.119998437,1.362369061,1.274282336,-0.227765471
1.13,1.358895898,1.276498914,-0.444570273
1.14,1.280757546,1.184502602,-0.655545652
1.149998437,1.166996956,1.045085669,-0.882019579
1.159998437,1.059833765,0.914674699,-1.123747706
1.169998437,1.000981212,0.788435042,-1.369804263
1.179998437,1.002063274,0.663294911,-1.593101621
1.189998437,1.051002383,0.587861776,-1.787025213
1.2,1.096869588,0.597845078,-1.974508405
1.21,1.080323935,0.632420063,-2.147034168
1.219998437,0.98303926,0.623431623,-2.284723282
1.229998437,0.829764426,0.598403573,-2.388779879
1.239998437,0.635317326,0.543233752,-2.475033998
1.249998437,0.435808718,0.440119684,-2.555755377
1.259996875,0.267314613,0.281765968,-2.616475344
1.27,0.182561442,0.099675752,-2.649811268
1.28,0.197798163,-0.00715585,-2.66263938
1.289998437,0.274243593,0.024975661,-2.671819925
1.299998437,0.340496272,0.131109133,-2.687510252
1.309998437,0.338820755,0.212197125,-2.699151754
1.319998437,0.245323479,0.242740393,-2.718332767
1.329998437,0.077038832,0.198025063,-2.731911421
1.34,-0.118856922,0.091821775,-2.731736898
1.35,-0.29843384,-0.008150687,-2.716413021
1.36,-0.43952626,-0.085800387,-2.680755854
1.369998437,-0.548103213,-0.162193447,-2.625586033
1.379998437,-0.627044439,-0.228987202,-2.556663036
1.389998437,-0.686053991,-0.265708923,-2.502680063
1.399998437,-0.735167563,-0.272236466,-2.475295782
1.409998437,-0.783513188,-0.269566089,-2.469885111
1.42,-0.827757299,-0.278886169,-2.471770287
1.43,-0.8520872,-0.275709659,-2.475208521
1.439998437,-0.867376268,-0.255673289,-2.465870857
1.449998437,-0.890292466,-0.256441236,-2.443548203
1.459998437,-0.942861736,-0.292255372,-2.40981102
1.469998437,-1.02946496,-0.342032164,-2.356438875
1.479998437,-1.110500693,-0.372086734,-2.274111748
1.49,-1.148269534,-0.376572251,-2.16996789
1.5,-1.143888831,-0.38934806,-2.057621002
1.509998437,-1.10454905,-0.457660228,-1.951435208
1.519998437,-1.039553046,-0.59847337,-1.86093986
1.529998437,-0.955515385,-0.775571942,-1.770950675
1.539998437,-0.850376785,-0.944135845,-1.677819967
1.549998437,-0.723892748,-1.054353356,-1.581687212
1.56,-0.602540016,-1.122840166,-1.48263979
1.57,-0.520544469,-1.185654521,-1.408882141
1.579998437,-0.50438267,-1.215447307,-1.381480455
1.589998437,-0.562030911,-1.235326529,-1.403401852
1.599998437,-0.670241356,-1.245100379,-1.456163049
1.609998437,-0.789656758,-1.258609295,-1.513968349
1.619998437,-0.894655764,-1.286482215,-1.5528543
1.63,-0.954991817,-1.329853654,-1.54910183
1.64,-0.968954444,-1.360571384,-1.469916344
1.649998437,-0.946980715,-1.414833665,-1.314529657
1.659998437,-0.913784564,-1.515190125,-1.137675405
1.669998437,-0.873135865,-1.653158426,-0.989217699
1.679998437,-0.824702978,-1.785768509,-0.886697054
1.689998437,-0.772325635,-1.91944325,-0.855036795
1.7,-0.715550065,-2.054304838,-0.862000644
1.71,-0.644585013,-2.1353755,-0.8802917
1.719998437,-0.584598005,-2.161276102,-0.916804016
1.729998437,-0.557545424,-2.142182112,-0.94366461
1.739996875,-0.5473876,-2.043065071,-0.940732479
1.749996875,-0.553653359,-1.87355864,-0.920783341
1.759998437,-0.597653091,-1.674416542,-0.874759018
1.77,-0.668356359,-1.508592844,-0.809972405
1.78,-0.719354928,-1.334810376,-0.749618888
1.79,-0.75127697,-1.169353127,-0.739600718
1.799998437,-0.797196567,-1.084844351,-0.807267129
1.809998437,-0.827635109,-1.040128946,-0.922074914
1.819998437,-0.804457128,-1.001225591,-1.060985684
1.829998437,-0.758642256,-0.979478776,-1.194643021
1.84,-0.715864241,-0.970979035,-1.280617833
1.85,-0.653329074,-0.945706666,-1.302783608
1.860001562,-0.580444157,-0.908234417,-1.295645118
1.869998437,-0.540528476,-0.899263442,-1.308839798
1.879998437,-0.552466512,-0.92671746,-1.373835921
1.889998437,-0.60733968,-0.991172493,-1.48445487
1.899998437,-0.683872342,-1.093256831,-1.59495163
1.909998437,-0.722234666,-1.201118112,-1.664660096
1.92,-0.676175475,-1.289972901,-1.680298328
1.93,-0.54181999,-1.33371079,-1.657923102
1.939998437,-0.35306266,-1.3354038,-1.624779344
1.949998437,-0.166993096,-1.300968409,-1.598424911
1.959998437,-0.010663962,-1.24712503,-1.573292136
1.969998437,0.092397727,-1.186195612,-1.571075559
1.979998437,0.120759331,-1.133922935,-1.58947134
1.99,0.106220737,-1.077182293,-1.594934225
2,0.102415919,-1.011470675,-1.580448031
2.01,0.12833406,-0.934588909,-1.545087576
2.019998437,0.206559718,-0.836518884,-1.499621749
2.029998437,0.328610599,-0.719546914,-1.451852083
2.039998437,0.466526508,-0.615176201,-1.410662413
2.049998437,0.590951025,-0.526792705,-1.378251553
2.06,0.681865215,-0.459667355,-1.358756304
2.07,0.748257577,-0.402455479,-1.340674639
2.079998437,0.80656898,-0.330216289,-1.307687879
2.089998437,0.851441443,-0.251763731,-1.24939394
2.099998437,0.884131432,-0.185074717,-1.155023932
2.110004687,0.92547828,-0.110968031,-1.032327294
2.119998437,0.986966252,-0.016231561,-0.896732688
2.13,1.056151032,0.083618723,-0.771452963
2.14,1.110954404,0.174829632,-0.662282646
2.149998437,1.135231972,0.227730557,-0.56866318
2.159998437,1.144639254,0.245323479,-0.479476839
2.169998437,1.154517889,0.263527274,-0.390028715
2.179998437,1.168253541,0.267489165,-0.312797904
2.189998437,1.180610538,0.250786364,-0.255568564
2.2,1.162895441,0.217101499,-0.218881741
2.21,1.101966023,0.173730075,-0.191846594
2.219998437,1.019953012,0.15222761,-0.156346589
2.229998437,0.955061615,0.145665184,-0.099710658
2.239998437,0.940749943,0.156102255,-0.03021165
2.249996875,0.988537014,0.202789798,0.032271139
2.260003125,1.069485426,0.282481551,0.069830626
2.27,1.1549716,0.381686062,0.087336272
2.28,1.25244832,0.497017413,0.115680419
2.29,1.337864637,0.571124077,0.157289073
2.299998437,1.368215919,0.593394518,0.212424025
2.309998437,1.344776154,0.59777528,0.273370922
2.319998437,1.297373056,0.605158031,0.334125817
2.329998437,1.268452883,0.610882699,0.379539311
2.34,1.28546989,0.586884439,0.396486431
2.349998437,1.343065739,0.543600261,0.37603119
2.360001562,1.416003108,0.495917857,0.337005615
2.369998437,1.46363306,0.472163916,0.326516181
2.379998437,1.476339102,0.475619674,0.390482515
2.389998437,1.462341547,0.483700544,0.537840664
2.399998437,1.424939156,0.475776762,0.750631213
2.410001562,1.353555202,0.431672275,0.973544657
2.42,1.259150386,0.367985219,1.151638031
2.43,1.182652593,0.364704013,1.279500842
2.439998437,1.166752577,0.429752409,1.392510891
2.449998437,1.216965675,0.50199157,1.519186974
2.459998437,1.321615696,0.551768363,1.660506248
2.469998437,1.464226484,0.611598253,1.807236075
2.479998437,1.621637821,0.680364251,1.947560549
2.49,1.761473536,0.736511469,2.066487312
2.5,1.856332183,0.768817544,2.153893471
2.509998437,1.91078651,0.801961362,2.216009617
2.519998437,1.91214776,0.836099982,2.259712696
2.529998437,1.840816259,0.883223891,2.286939859
2.539998437,1.681275606,0.98270762,2.308773994
2.549998437,1.479026914,1.118721128,2.34998107
2.56,1.283392906,1.273130417,2.402533054
2.57,1.109418511,1.444207549,2.460285902
2.579998437,0.979758024,1.600606561,2.520098448
2.589998437,0.903207898,1.700997829,2.578095675
2.599998437,0.86528188,1.751088858,2.63394618
2.609998437,0.853082001,1.740983367,2.689273119
2.619998437,0.864321947,1.662495971,2.751459122
2.63,0.892840624,1.540602088,2.825845242
2.64,0.93310535,1.410383105,2.896757841
2.649998437,0.972619653,1.327794075,2.948314905
2.659998437,0.98406899,1.321249127,2.971230984
2.669998437,0.953979492,1.34826684,2.96449399
2.679998437,0.871512711,1.406682968,2.946744204
2.689998437,0.759829104,1.475361705,2.946552038
2.7,0.66081655,1.528297544,2.961352587
2.71,0.594284594,1.571808577,2.983081818
2.719998437,0.565399408,1.597988605,3.008039951
2.729998437,0.552012742,1.626821399,3.017290354
2.739998437,0.509513974,1.661029816,2.987148523
2.749998437,0.414986938,1.638253331,2.933130503
2.759998437,0.297281921,1.544930577,2.884732485
2.77,0.214850023,1.439826846,2.8661623
2.78,0.226229578,1.336450934,2.869862318
2.79,0.328383684,1.291281819,2.86480093
2.799998437,0.50504595,1.336485863,2.825949907
2.809998437,0.683401108,1.473965406,2.735437155
2.819998437,0.770126522,1.669756532,2.579020739
2.829998437,0.700121403,1.841392159,2.37191987
2.84,0.525710642,1.901169658,2.171433926
2.85,0.360707194,1.88348949,2.01431942
2.86,0.272445887,1.874483585,1.91305542
2.869998437,0.284279227,1.900628686,1.85285902
2.879998437,0.373378277,1.95094645,1.806171417
2.89,0.475113541,2.01068902,1.746236801
2.899998437,0.542011976,2.030777931,1.651587605
2.909998437,0.56251961,1.978470325,1.51574862
2.92,0.579274774,1.866542339,1.356085896
2.93,0.631983697,1.760269284,1.199861526
2.939998437,0.716649652,1.700736046,1.056831717
2.949998437,0.806080341,1.680629849,0.927310884
2.959998437,0.891985416,1.672287226,0.813428164
2.969998437,0.960524499,1.646770477,0.707189977
2.979998437,0.999584973,1.574862957,0.587024033
2.99,1.040774703,1.467123747,0.448340178
3,1.097183824,1.381305933,0.3109653
3.009998437,1.143365145,1.31470418,0.164601997
3.019998437,1.167485595,1.213038683,0.004956735
3.029998437,1.185497403,1.086659431,-0.167953029
3.039998437,1.221730471,0.953054488,-0.351998001
3.049998437,1.286447287,0.840306222,-0.527700305
3.06,1.37045002,0.713734925,-0.736790717
3.07,1.447384119,0.541034639,-0.941482961
3.079998437,1.48103404,0.33995524,-1.113450289
3.089998437,1.455709338,0.044924773,-1.288314819
3.099998437,1.406944871,-0.301872134,-1.472359776
3.109998437,1.374708533,-0.56046015,-1.682671905
3.119998437,1.354899049,-0.713542938,-1.897138
3.13,1.365301251,-0.829083741,-2.088373661
3.14,1.394797325,-0.90816462,-2.238646507
3.149998437,1.436371088,-1.03866291,-2.349230528
3.159998437,1.477752805,-1.260948062,-2.435764074
3.169998437,1.485536933,-1.434695601,-2.521372557
3.179998437,1.431763411,-1.515643954,-2.631014109
3.189998437,1.312278152,-1.589645863,-2.765997887
3.2,1.133661151,-1.69618082,-2.918295145
3.21,0.941779673,-1.823851585,-3.059893847
3.219998437,0.818995774,-2.026955605,-3.197094202
3.229998437,0.758171022,-2.148256063,-3.267954588
3.239998437,0.803008556,-2.228907585,-3.322897434
3.249998437,0.930679381,-2.278998613,-3.353737354
3.259996875,1.0417521,-2.230967045,-3.356215715
3.27,1.006426692,-2.102720261,-3.308690548
3.28,0.722182333,-2.028491497,-3.209835052
3.29,0.340339214,-1.949026585,-3.195732832
3.299998437,0.015009832,-1.784180284,-3.136373997
3.309998437,-0.212685823,-1.610101104,-3.095062256
3.319998437,-0.3500956,-1.389055133,-3.117769003
3.329998437,-0.448532164,-1.090551496,-3.113684893
3.34,-0.553443909,-0.863868177,-3.08200717
3.35,-0.691708863,-0.712164164,-3.009680748
3.36,-0.894952476,-0.545310676,-2.86413765
3.369998437,-1.102576852,-0.376659513,-2.697825193
3.379998437,-1.213998675,-0.280474424,-2.542176723
3.389998437,-1.206231952,-0.262916386,-2.425169945
3.399998437,-1.113118649,-0.349362552,-2.325145006
3.409998437,-0.986652076,-0.501258552,-2.225574017
3.42,-0.845262945,-0.722548842,-2.110958338
3.43,-0.699021816,-0.996879697,-1.939305186
3.439998437,-0.553356647,-1.407642961,-1.606854796
3.449998437,-0.434586972,-1.629997849,-1.325978994
3.459998437,-0.357687771,-1.674259424,-1.16792202
3.469998437,-0.30094713,-1.464191556,-1.084547639
3.479998437,-0.222005874,-1.25838244,-1.037685513
3.49,-0.161006629,-1.140625,-1.005868196
3.5,-0.174881995,-1.227559924,-0.961274981
3.509998437,-0.270334035,-1.56023705,-0.920608819
3.519998437,-0.42996186,-1.958503723,-0.884375811
3.53,-0.596780419,-2.228418827,-0.839381218
3.539998437,-0.729687274,-2.316924572,-0.7933743
3.549998437,-0.82351613,-2.286189318,-0.75173074
3.56,-0.894900143,-2.223025799,-0.684203982
3.57,-0.95640552,-2.212798119,-0.586151361
3.58000625,-1.011732459,-2.250567198,-0.470628023
3.59,-1.044719219,-2.293624401,-0.355418861
3.599998437,-1.017806172,-2.372879744,-0.273336023
3.609998437,-0.945130706,-2.584954739,-0.227468759
3.619998437,-0.84569931,-3.016400099,-0.135385185
3.630001562,-0.79176861,-3.294186831,0.030421089
3.64,-0.776723862,-3.429973364,0.167970493
3.649998437,-0.737977564,-3.494742632,0.239790782
3.659998437,-0.643921793,-3.48545742,0.251117975
3.669998437,-0.558121383,-3.411822081,0.221587002
3.679998437,-0.60507077,-3.257918835,0.157934844
3.689998437,-0.783321202,-3.082513332,0.067945667
3.7,-1.06393528,-3.027919292,0.035779249
3.71,-1.425968885,-3.068603039,0.096569069
3.719998437,-1.743601322,-3.012193918,0.212040052
3.729998437,-1.929321885,-2.89324975,0.245375842
3.739998437,-1.929862857,-2.836701155,0.116675258
3.749998437,-1.796746612,-2.771233797,-0.136484742
3.759998437,-1.602020264,-2.659864426,-0.503702044
3.77,-1.427016139,-2.536137819,-0.878738344
3.780003125,-1.293655515,-2.435153246,-1.08599627
3.79,-1.152999401,-2.300396204,-1.087182999
3.799998437,-1.009847522,-2.114396572,-0.964242041
3.809998437,-0.923017383,-1.950562477,-0.838019848
3.819998437,-0.938655496,-1.823450208,-0.814894199
3.830003125,-1.025503159,-1.728888273,-0.922947586
3.839998437,-1.111774683,-1.681223273,-1.139420748
3.85,-1.094897389,-1.633942366,-1.385564566
3.86,-0.948987842,-1.534563303,-1.592525721
3.869998437,-0.687136114,-1.442305207,-1.724071145
3.879998437,-0.354424,-1.354462743,-1.780724525
3.889998437,-0.019669861,-1.218414307,-1.777809858
3.899998437,0.289061427,-1.031402349,-1.739360213
3.909998437,0.570425928,-0.853273988,-1.688222051
3.92,0.838560879,-0.706230044,-1.651255965
3.930003125,1.061352134,-0.57513833,-1.636839628
3.939998437,1.219618678,-0.443837225,-1.629317164
3.949998437,1.327479959,-0.31175071,-1.60130465
3.959998437,1.413943529,-0.188774809,-1.521525621
3.969998437,1.506847501,-0.07457792,-1.37193346
3.980003125,1.6278162,0.008360127,-1.168812037
3.99,1.780811787,0.071680672,-0.961571693
4,1.944366574,0.080389865,-0.822975099
4.009998437,2.093243122,-0.028675759,-0.802973628
4.019998437,2.173057079,-0.133081362,-0.890833497
4.030001562,2.189201355,-0.223279968,-1.046604156
4.039998437,2.214683294,-0.358246267,-1.205271959
4.049998437,2.294793844,-0.478935808,-1.334147096
4.06,2.42222023,-0.530388117,-1.416561604
4.069998437,2.570171833,-0.562222898,-1.431833148
4.080003125,2.723795652,-0.593551576,-1.386524439
4.089998437,2.847312689,-0.590933561,-1.299275398
4.099998437,2.917876244,-0.595820487,-1.132788539
4.109998437,2.879391909,-0.634078085,-0.904569268
4.119998437,2.769313812,-0.66968286,-0.703053534
4.13,2.649549484,-0.79724896,-0.595471442
4.139998437,2.578182936,-1.09852767,-0.524227083
4.149998437,2.600575447,-1.370153308,-0.436402112
4.159998437,2.7273736,-1.542748928,-0.295449346
4.169998437,2.936533928,-1.656736374,-0.089535393
4.179998437,3.19465065,-1.663996935,0.131109133
4.189996875,3.442522287,-1.582001328,0.36522761
4.2,3.641315222,-1.585352421,0.513440967
4.21,3.754499912,-1.721871972,0.549918354
4.219998437,3.758060455,-1.798160315,0.496825427
4.229998437,3.717882872,-1.95663631,0.345819533
4.239998437,3.627614498,-2.170212269,0.174306035
4.249998437,3.451615572,-2.40036869,0.082274817
4.259998437,3.192625999,-2.590173244,0.119293258
4.27,2.920127869,-2.640229464,0.283354193
4.28,2.688644886,-2.589510202,0.508449316
4.29,2.525665998,-2.495105267,0.69256407
4.300001562,2.447056293,-2.379354954,0.755500674
4.309998437,2.458348513,-2.183057785,0.654585719
4.319998437,2.526870251,-1.949881792,0.427815109
4.329998437,2.670545816,-1.674137235,0.208427221
4.339998437,2.792875767,-1.429005742,0.049427725
4.35,2.870787382,-1.292904973,0.033789575
4.36,2.844589949,-1.195026994,0.077475168
4.369998437,2.690285444,-1.18066287,0.115191728
4.379998437,2.500760078,-1.191152334,0.118822016
4.389998437,2.410858154,-1.162092566,0.093340211
4.399998437,2.479257584,-1.114584684,0.068416908
4.409998437,2.677387476,-1.042834282,0.0320617
4.42,2.945382833,-0.942477822,-0.026686084
4.43,3.185435295,-0.898024261,-0.104876831
4.439998437,3.302215338,-0.980613232,-0.141284406
4.449998437,3.290015459,-1.054213762,-0.108472213
4.459998437,3.206815481,-1.067024469,-0.061889376
4.469998437,3.143372774,-1.055924177,-0.040997785
4.479998437,3.170599937,-1.033479214,-0.090373151
4.49,3.307468653,-0.985639811,-0.215635434
4.5,3.502160311,-0.931412399,-0.357356161
4.509998437,3.684424877,-0.922615945,-0.487610072
4.519998437,3.823405504,-0.906576395,-0.60552454
4.529998437,3.951058865,-0.879157245,-0.705985665
4.539998437,4.150113583,-0.887203217,-0.815086186
4.549998437,4.477031231,-0.81431824,-0.901200771
4.56,4.850915909,-0.623117447,-0.876329839
4.57,5.085523129,-0.380987912,-0.779062629
4.579998437,5.075434685,-0.119939029,-0.673662186
4.589998437,4.846081257,0.114249252,-0.625072241
4.599998437,4.534033775,0.268274546,-0.693192422
4.609998437,4.297384739,0.454012483,-0.889315069
4.619998437,4.161248684,0.643380702,-1.191798091
4.63,4.106497765,0.735970438,-1.510023952
4.64,4.034956932,0.740002155,-1.689566016
4.649998437,3.873531342,0.610551059,-1.698083162
4.659998437,3.681807041,0.493544191,-1.640818954
4.67,3.556265354,0.515221179,-1.595684767
4.679998437,3.501025677,0.620499432,-1.622475505
4.689998437,3.483851671,0.730106115,-1.752502561
4.7,3.457654238,0.827355862,-1.961366057
4.71,3.339652538,0.851423979,-2.190999031
4.72,3.112166405,0.865124822,-2.340975285
4.729998437,2.772699833,0.822940171,-2.4343853
4.739998437,2.457179308,0.834302306,-2.560136318
4.749996875,2.234475136,0.952042222,-2.679185152
4.759998437,2.052070856,0.97347486,-2.785929441
4.77,1.839454889,0.864618659,-2.899166346
4.78,1.587446809,0.692040503,-2.99781251
4.79,1.310358286,0.540022314,-3.086108685
4.799998437,1.019743562,0.440730542,-3.156166077
4.809998437,0.7001912,0.42872268,-3.212034225
4.819998437,0.345069051,0.533215523,-3.277623653
4.829998437,-0.015865043,0.839817524,-3.400896311
4.839998437,-0.387672544,1.400696516,-3.591922522
4.85,-0.852122068,2.16291666,-3.854856253
4.86,-1.486427069,2.984024286,-4.152696609
4.869998437,-2.197474241,3.694792271,-4.379258156
4.879998437,-2.92408967,4.332989216,-4.516179085
4.889998437,-3.510258436,4.857652664,-4.58489275
4.899998437,-3.83258605,5.163067818,-4.598628521
4.909998437,-3.900950432,5.21771431,-4.513054848
4.92,-3.766891718,5.002113819,-4.325309753
4.93,-3.536630392,4.601298809,-4.04637146
4.939998437,-3.230587006,4.135400772,-3.786928177
4.949998437,-2.921942949,3.418925524,-3.541430235
4.959998437,-2.639217138,2.662901163,-3.355221033
4.969998437,-2.404156208,2.070047855,-3.250954866
4.979998437,-2.279923677,1.767564774,-3.2169559
4.99,-2.325145006,1.703441381,-3.24153018
5,-2.523658752,1.71201086,-3.281620502
5.009998437,-2.816943884,1.647643209,-3.295408487
5.019998437,-3.115412712,1.454627156,-3.250902653
5.029998437,-3.342183352,1.161621332,-3.126844645
5.039998437,-3.450882435,0.901497483,-2.961143017
5.049998437,-3.481286049,0.833778679,-2.797937393
5.06,-3.45973134,0.940680087,-2.588951588
5.07,-3.429554462,1.083378196,-2.35690999
5.08,-3.434284449,1.151917338,-2.140070438
5.089998437,-3.456240654,1.121374011,-1.95276165
5.100003125,-3.486312628,0.958779156,-1.81817925
5.109998437,-3.498844147,0.656976819,-1.721784711
5.119998437,-3.484043598,0.295030445,-1.640644431
5.13,-3.455245733,-0.003176499,-1.537739754
5.14,-3.458945751,-0.17203711,-1.394256234
5.149998437,-3.495405674,-0.290963829,-1.211206079
5.159998437,-3.524552822,-0.332781941,-0.974103153
5.169998437,-3.547835588,-0.253264725,-0.689055979
5.179998437,-3.595098972,-0.124092907,-0.382436544
5.189998437,-3.663166761,0.039584067,-0.069760807
5.2,-3.754307985,0.237207696,0.237085521
5.21,-3.856182814,0.427326411,0.532482505
5.22,-3.950168848,0.573986411,0.801245749
5.229998437,-4.006438255,0.67846185,1.032676458
5.239998437,-3.991183996,0.79712677,1.164780378
5.249998437,-3.827698946,0.850254595,1.166717649
5.259998437,-3.507396221,0.881757796,1.153924465
5.27,-3.150476456,0.966615677,1.224854589
5.28,-2.84888339,0.939022064,1.448029876
5.29,-2.647734165,0.757577598,1.868968368
5.299998437,-2.538022995,0.665686011,2.458243847
5.309998437,-2.511895418,0.746006072,3.053086996
5.319998437,-2.526747942,0.972445071,3.445646524
5.329998437,-2.546801805,1.272711515,3.52368021
5.339998437,-2.519016266,1.545279622,3.286612034
5.350003125,-2.466865778,1.724175811,2.766922712
5.36,-2.376195908,1.783098221,2.020009279
5.369998437,-2.253342152,1.569749117,1.301561832
5.379998437,-2.116874933,1.112333179,0.850917816
5.389998437,-1.978435397,0.578855872,0.648215294
5.399998437,-1.861131787,-0.075241141,0.597077131
5.409998437,-1.724210739,-0.689300358,0.709703207
5.42,-1.564722538,-1.026113987,0.937084734
5.43,-1.442968369,-1.147274733,1.196318507
5.439998437,-1.335019827,-1.259516835,1.440577269
5.449998437,-1.24996984,-1.481505275,1.631760716
5.459998437,-1.218658686,-1.899441838,1.7839185
5.47,-1.214661837,-2.557675362,1.888324022
5.479998437,-1.199948788,-3.316561937,1.921450377
5.49,-1.198011398,-3.989316463,1.883786201
5.5,-1.224470615,-4.296703815,1.757913113
5.509998437,-1.383627176,-4.149206161,1.505695581
5.519998437,-1.758157372,-3.690236807,1.20717442
5.529998437,-2.289505482,-3.212348223,0.960908473
5.539998437,-2.813296318,-2.92532897,0.841318488
5.549998437,-3.164892673,-2.883929729,0.844652116
5.56,-3.27884531,-3.13139987,0.868091881
5.57,-3.179658175,-3.534134626,0.844303012
5.579998437,-2.938052416,-3.877598047,0.781279206
5.589998437,-2.664803505,-4.101436615,0.666104913
5.600003125,-2.444159031,-4.109831333,0.450661451
5.609998437,-2.393143177,-3.808482885,0.187692702
5.619998437,-2.554027557,-3.377543688,-0.001675516
5.63,-2.859564781,-3.011687756,-0.051399946
5.64,-3.179710627,-2.762350082,-0.04288274
5.650004687,-3.395555496,-2.626039743,-0.048258353
5.659998437,-3.470046043,-2.623072863,-0.153239906
5.669998437,-3.402362347,-2.782683134,-0.377479821
5.679998437,-3.22025466,-3.036768198,-0.718656778
5.689998437,-2.998685122,-3.153548241,-1.170644641
5.70000625,-2.786784649,-2.900126457,-1.655182958
5.71,-2.606282711,-2.411957741,-2.079786777
5.72,-2.504303217,-1.814042807,-2.40651226
5.729998437,-2.483690739,-1.163122296,-2.680406809
5.739998437,-2.573732376,-0.532726824,-2.953830004
5.750003125,-2.790310144,0.033649947,-3.275040627
5.759998437,-3.09986186,0.507995546,-3.64930892
5.77,-3.410931826,0.809344053,-4.033455849
5.78,-3.601608992,0.852122068,-4.379537106
5.79,-3.601172686,0.628231287,-4.641074657
5.799998437,-3.40138483,0.320634425,-4.81075573
5.809998437,-3.046768904,0.094928458,-4.910291672
5.819998437,-2.612426281,-0.012531464,-4.952179909
5.829998437,-2.16394639,-0.036651913,-4.946176052
5.839998437,-1.769013405,0.009459685,-4.892000675
5.85,-1.467350602,0.057700586,-4.801697254
5.86,-1.267440677,0.087057024,-4.719562054
5.869998437,-1.153802276,0.168895513,-4.648003578
5.879998437,-1.108860016,0.342276514,-4.54803133
5.889998437,-1.103868365,0.554910004,-4.417654991
5.899998437,-1.108912349,0.745203257,-4.261797428
5.909998437,-1.104793429,0.876888335,-4.111821175
5.92,-1.072312832,0.980944872,-3.925140858
5.93,-0.980037272,0.971642256,-3.722333431
5.939998437,-0.768416107,0.804684043,-3.530452013
5.949998437,-0.414096802,0.639593363,-3.35029912
5.959998437,0.05503023,0.586099029,-3.198944092
5.969998437,0.593307197,0.610010028,-3.106738329
5.979998437,1.131444573,0.715794444,-3.083281279
5.99,1.56308198,0.941256046,-3.099547625
6,1.827586651,1.145773768,-3.126146555
6.009998437,1.951504946,1.227490067,-3.100612402
6.019998437,2.000705719,1.233651042,-2.964057684
6.029998437,2.028247118,1.204730988,-2.713899612
6.039998437,2.03629303,1.171447515,-2.389879227
6.049998437,2.029416561,1.097218633,-2.031353712
6.06,2.075231314,0.989985645,-1.668639421
6.07,2.235801697,0.955218673,-1.316554189
6.08,2.533607244,0.968238831,-0.96460855
6.089998437,2.962766171,1.014228225,-0.642665148
6.099998437,3.449032307,1.146454453,-0.355453759
6.109998437,3.898437262,1.33234942,-0.059463367
6.119998437,4.251586914,1.487072825,0.251816094
6.13,4.496805668,1.614150286,0.559203506
6.14,4.651267529,1.737929106,0.830253124
6.149998437,4.757086754,1.805612922,1.023670554
6.159998437,4.849065781,1.806694984,1.167712569
6.169998437,4.927658081,1.799312234,1.307338834
6.179998437,4.981850147,1.806887031,1.418673396
6.190001562,4.99881506,1.84807682,1.457594275
6.2,4.998186588,1.943493962,1.447104812
6.21,5.007821083,2.086820364,1.357848644
6.22,5.043041706,2.273465872,1.331354618
6.229998437,5.10522747,2.531477928,1.429878473
6.239998437,5.205811024,2.83738184,1.517005324
6.249998437,5.271033764,2.963307142,1.621131659
6.259998437,5.091055393,2.732871532,1.691799998
6.27,4.549323082,2.048109055,1.567497611
6.28,3.931668282,1.391376495,1.201571941
6.290003125,3.49399209,1.098230958,0.756931841
6.299998437,3.219957829,1.044684291,0.357897222
6.309998437,2.995944977,1.118965507,0.164601997
6.319998437,2.724703312,1.271472335,0.192440003
6.329998437,2.390664816,1.455796599,0.311803073
6.339998437,2.052768946,1.60938561,0.417657286
6.35,1.751036525,1.669145584,0.497296661
6.36,1.518523693,1.669616818,0.552379251
6.369998437,1.319957614,1.71530962,0.733387351
6.379998437,1.086746693,1.725100875,1.004960537
6.389998437,0.773948789,1.607221365,1.220404029
6.399998437,0.358368456,1.371828794,1.384238124
6.409998437,-0.123010807,1.07712996,1.534493446
6.42,-0.562763989,0.801071227,1.689531088
6.43,-0.897308648,0.573811889,1.845912576
6.439998437,-1.175479293,0.35236451,2.005156517
6.449998437,-1.434329033,0.108768918,2.140960455
6.459998437,-1.723774433,-0.16964601,2.279853821
6.470009375,-2.068651438,-0.421776265,2.434699297
6.479998437,-2.432796955,-0.613378525,2.537918091
6.49,-2.777935743,-0.767979801,2.568461418
6.5,-3.056490421,-0.969635129,2.636529207
6.509998437,-3.212627649,-1.19488728,2.738264561
6.519998437,-3.238650322,-1.389229774,2.87242794
6.529998437,-3.173741579,-1.55182457,3.02329421
6.539998437,-3.066683054,-1.6880126,3.119618893
6.549998437,-2.960113287,-1.773079991,3.134349585
6.56,-2.899026871,-1.875600576,3.097505569
6.57,-2.880439043,-1.97860992,3.037431479
6.579998437,-2.857365847,-1.992886782,2.94355011
6.589998437,-2.802265644,-1.839385033,2.828498125
6.599998437,-2.72927618,-1.547164559,2.761041164
6.609998437,-2.670790195,-1.194381118,2.750726223
6.619998437,-2.65068388,-0.802921295,2.77219367
6.63,-2.665745974,-0.46694538,2.845794201
6.64,-2.668800354,-0.320267916,2.907090187
6.649998437,-2.612199306,-0.278240383,2.882882595
6.659998437,-2.464474678,-0.280998021,2.76147747
6.670004687,-2.221507311,-0.276355445,2.60244298
6.679998437,-1.929042578,-0.217642561,2.472206593
6.689998437,-1.681816697,-0.110636421,2.396005392
6.7,-1.475501299,0.030298917,2.363472462
6.71,-1.3288064,0.142418861,2.397436619
6.72,-1.201955914,0.199700579,2.434001207
6.729998437,-1.073813796,0.194132969,2.420579672
6.739998437,-0.913627505,0.121090941,2.318006754
6.749998437,-0.697154343,0.037995819,2.145376205
6.759998437,-0.441062152,-0.00837758,1.939619303
6.769998437,-0.191951305,-0.000715585,1.757232428
6.78,0.025900686,0.067369707,1.64418745
6.79,0.222337499,0.209561676,1.612649322
6.799998437,0.396416634,0.438793212,1.618845224
6.809998437,0.521539271,0.715393007,1.615843296
6.819998437,0.58049649,0.940523028,1.545471549
6.829998437,0.57229346,1.09683466,1.358581781
6.839998437,0.53077209,1.208012223,1.069607615
6.85,0.489861548,1.267213702,0.7484321
6.86,0.491205454,1.318508983,0.460487664
6.870003125,0.544158757,1.387990594,0.263230562
6.879998437,0.62498492,1.437348485,0.15962781
6.889998437,0.729757071,1.478258967,0.107791536
6.899998437,0.85868454,1.547967434,0.052743848
6.909998437,0.992446542,1.649231434,-0.057491146
6.92000625,1.096904516,1.71007359,-0.271765202
6.929998437,1.140537739,1.663543105,-0.569500923
6.939998437,1.138617873,1.505747914,-0.882752597
6.949998437,1.129297853,1.278820157,-1.146471858
6.959998437,1.132840872,1.016793966,-1.347341776
6.970004687,1.187556982,0.815243304,-1.501087904
6.979998437,1.312609792,0.767089665,-1.619665504
6.99,1.4902668,0.89884454,-1.700369596
7,1.646997452,1.115108252,-1.733914733
7.009998437,1.721714973,1.265224099,-1.746690631
7.02000625,1.700770974,1.259953141,-1.793831944
7.029998437,1.631935239,1.152824879,-1.901728153
7.039998437,1.566782117,1.025276184,-2.052559614
7.049998437,1.544633865,0.943036318,-2.224910736
7.06,1.591722846,0.960768819,-2.392270327
7.07,1.686337113,1.088858604,-2.508771181
7.079998437,1.759658456,1.238328576,-2.522245169
7.089998437,1.770462036,1.345264912,-2.446043968
7.099998437,1.720056891,1.367482901,-2.306470156
7.109998437,1.653175831,1.327584743,-2.20489192
7.119998437,1.598564506,1.230980754,-2.229483604
7.13,1.567218423,1.090516567,-2.377836466
7.14,1.563029647,0.972968698,-2.547255754
7.149998437,1.577201724,0.93764323,-2.636860847
7.159998437,1.589541197,0.976057947,-2.639339209
7.169998437,1.576433778,1.052451015,-2.598027229
7.179998437,1.51665616,1.105875492,-2.544480562
7.189998437,1.41757381,1.105491519,-2.497932673
7.2,1.305733204,1.066274047,-2.4766047
7.21,1.204085231,1.00464642,-2.478210449
7.220003125,1.111861944,0.941500425,-2.480654001
7.229998437,1.049274445,0.901741803,-2.469902754
7.239998437,1.018120408,0.897867203,-2.43735218
7.249998437,1.014106154,0.93855083,-2.389076471
7.259996875,1.013599992,1.017492056,-2.333313227
7.27,1.008032322,1.082522988,-2.267130375
7.28,1.000056148,1.105648637,-2.184715986
7.29,1.002010942,1.079172015,-2.09088707
7.299998437,1.018382192,1.018486857,-2.002904892
7.309998437,1.049937725,0.946073174,-1.923841476
7.319998437,1.096101642,0.891269803,-1.84205544
7.329998437,1.147815824,0.861546874,-1.753602147
7.339998437,1.205184698,0.878860533,-1.67106545
7.35,1.257509708,0.950925171,-1.595388055
7.36,1.292521,1.067286253,-1.52156055
7.369998437,1.294318676,1.216005802,-1.439407945
7.379998437,1.250458598,1.342385054,-1.346102595
7.389998437,1.156123519,1.417085171,-1.244803667
7.399998437,1.022797823,1.426352859,-1.154622555
7.409998437,0.881059647,1.405391455,-1.086449981
7.42,0.766147196,1.402092814,-1.05358541
7.43,0.688288033,1.431327105,-1.016759038
7.439998437,0.633379996,1.464889765,-0.949040234
7.449998437,0.576202989,1.496724606,-0.813375771
7.459998437,0.510770619,1.515033007,-0.633868694
7.469998437,0.450382203,1.492064476,-0.447746754
7.479998437,0.388527751,1.42734766,-0.299498498
7.49,0.305746764,1.292468667,-0.209160253
7.5,0.196384445,1.092558622,-0.16737707
7.509998437,0.069952793,0.872629702,-0.177395269
7.519998437,-0.056112334,0.672998965,-0.218759567
7.529998437,-0.192125842,0.513493299,-0.252968013
7.539998437,-0.33450979,0.366868198,-0.264766455
7.549998437,-0.474415392,0.200416163,-0.254695892
7.56,-0.614652574,0.021589722,-0.222477123
7.57,-0.765291989,-0.102660269,-0.16406095
7.579998437,-0.920224845,-0.180257604,-0.089954272
7.589998437,-1.05972898,-0.20900318,-0.035290558
7.599998437,-1.188918233,-0.202493101,-0.009424778
7.609998437,-1.324949265,-0.229737684,-0.004380777
7.619998437,-1.462550998,-0.299725384,0.002426008
7.63,-1.578004479,-0.400343627,0.034732051
7.64,-1.663159132,-0.501345813,0.096708693
7.65,-1.711941123,-0.608317077,0.173031941
7.659998437,-1.740843773,-0.686071455,0.231605187
7.669998437,-1.764719844,-0.726877272,0.247225881
7.679998437,-1.800970316,-0.745971143,0.22516492
7.689998437,-1.866490006,-0.734626532,0.181008101
7.7,-1.972291827,-0.707416832,0.14119713
7.71,-2.109352589,-0.678810894,0.129503429
7.72,-2.258682966,-0.656191409,0.146468028
7.729998437,-2.386894941,-0.644602478,0.162629783
7.739998437,-2.51086545,-0.630761981,0.158458441
7.749998437,-2.605026007,-0.612261474,0.124913216
7.759998437,-2.671383381,-0.591718972,0.089256138
7.769998437,-2.726937294,-0.594057739,0.058817595
7.78,-2.779262304,-0.607426941,0.023230333
7.79,-2.833821297,-0.628248692,-0.023509584
7.799998437,-2.894419193,-0.658722162,-0.089029245
7.809998437,-2.955051899,-0.70382148,-0.159086764
7.819998437,-3.008127213,-0.755832255,-0.228725404
7.829998437,-3.04411602,-0.806743562,-0.291609615
7.839998437,-3.049456596,-0.853989601,-0.341752917
7.85,-3.023887634,-0.904516876,-0.380446881
7.86,-2.972295761,-0.970944107,-0.408529222
7.869998437,-2.900161266,-1.049099922,-0.417430401
7.879998437,-2.829266071,-1.129629493,-0.426226854
7.889998437,-2.761215687,-1.222568274,-0.446210861
7.899998437,-2.691018343,-1.301823616,-0.479494303
7.909998437,-2.628884792,-1.325664878,-0.529009283
7.92,-2.596142292,-1.303691149,-0.592713833
7.93,-2.604153395,-1.279308915,-0.652927697
7.939998437,-2.640142202,-1.24972558,-0.686926663
7.949998437,-2.647821426,-1.207663059,-0.675651848
7.959998437,-2.576559782,-1.12458539,-0.611284137
7.969998437,-2.427840233,-1.001853943,-0.520823717
7.979998437,-2.246587753,-0.884340882,-0.447868943
7.99,-2.080205679,-0.779376745,-0.414777488
8,-1.972763062,-0.714031637,-0.416261017
8.009998437,-1.942080259,-0.691098034,-0.447956204
8.019998437,-1.975939631,-0.70769608,-0.499303788
8.029998437,-2.034669876,-0.714485407,-0.560233235
8.039998437,-2.072421312,-0.648477077,-0.626014709
8.049998437,-2.098985195,-0.538434088,-0.694449067
8.06,-2.145079374,-0.38320449,-0.755308688
8.07,-2.244091988,-0.211778253,-0.811455905
8.079998437,-2.382793188,-0.052953288,-0.858300567
8.089998437,-2.509504318,0.126152396,-0.899019122
8.099998437,-2.599842548,0.346953988,-0.923907518
8.109998437,-2.628011942,0.598962069,-0.925530672
8.119998437,-2.604397774,0.862820983,-0.88655746
8.13,-2.555319071,1.129350185,-0.799343348
8.14,-2.503727198,1.402459264,-0.695164621
8.15,-2.459430695,1.657347202,-0.612628043
8.159998437,-2.41743803,1.878183722,-0.570757568
8.169998437,-2.384817839,2.052280188,-0.553269386
8.179998437,-2.349143267,2.167664051,-0.52075386
8.189998437,-2.276712179,2.217562914,-0.456997007
8.2,-2.15734911,2.17611146,-0.376711875
8.21,-1.979011416,2.04515934,-0.290911466
8.22,-1.761333942,1.87652564,-0.215635434
8.229998437,-1.5283674,1.682375193,-0.161949098
8.239998437,-1.310602665,1.481016636,-0.124145269
8.249998437,-1.127535105,1.314023495,-0.079150684
8.259996875,-0.962479293,1.159247637,-0.014782939
8.269998437,-0.828891754,1.019551516,0.068818331
8.28,-0.71804589,0.929789245,0.160081595
8.29,-0.636678636,0.887220681,0.249442458
8.299998437,-0.61063832,0.881461084,0.299306512
8.309998437,-0.647586942,0.890554249,0.301941961
8.319998437,-0.742358327,0.922476292,0.271084547
8.329998437,-0.859749198,0.97747165,0.234729335
8.339998437,-0.960210323,1.044858813,0.245131493
8.35,-1.01466465,1.123608112,0.326463848
8.36,-1.033461809,1.205830574,0.470924735
8.369998437,-1.022396445,1.257911205,0.640169322
8.379998437,-0.975132883,1.251645446,0.759445131
8.389998437,-0.928427875,1.207191825,0.795486152
8.399998437,-0.90647167,1.153784752,0.753493547
8.409998437,-0.927380681,1.120274425,0.658163667
8.42,-0.991189957,1.140817046,0.550197601
8.43,-1.107132196,1.195498228,0.487330824
8.44,-1.228048563,1.244140506,0.539341629
8.449998437,-1.268924117,1.243163109,0.719546914
8.459998437,-1.187766314,1.196056724,0.960699022
8.469998437,-1.024386048,1.155599952,1.186055899
8.479998437,-0.852471173,1.163035035,1.341861486
8.49,-0.723351717,1.163506269,1.391289234
8.5,-0.66184628,1.161970377,1.352455616
8.509998437,-0.661619425,1.178917527,1.306326628
8.519998437,-0.683889806,1.151288986,1.311440349
8.529998437,-0.653503656,1.05255568,1.395181298
8.539998437,-0.541191697,0.931674182,1.518087387
8.549998437,-0.35327208,0.816953719,1.621742487
8.56,-0.154618725,0.775641799,1.656230211
8.57,-0.032794736,0.81077522,1.618670702
8.579998437,-0.020856684,0.85629344,1.540061116
8.589998437,-0.091036372,0.874130726,1.488015413
8.599998437,-0.161844388,0.871338189,1.476024985
8.609998437,-0.178739175,0.848474383,1.478066921
8.619998437,-0.137252688,0.813707411,1.485833645
8.63,-0.054052848,0.793391764,1.482971311
8.640003125,0.020559978,0.824161947,1.459688663
8.649998437,0.040962879,0.883677661,1.418900371
8.659998437,0.004974188,0.965411425,1.37547648
8.669998437,-0.055867989,1.031960845,1.340692163
8.679998437,-0.0916996,1.033653736,1.330569148
8.689998437,-0.070965089,0.946841121,1.343362451
8.7,0.020193459,0.806359589,1.358459592
8.71,0.158737689,0.656453252,1.348668218
8.72,0.285186797,0.570652843,1.296395659
8.729998437,0.354092389,0.533407509,1.208274007
8.740004687,0.339850515,0.539219499,1.091424227
8.749998437,0.242251694,0.589973629,0.987053514
8.759998437,0.105889127,0.62123251,0.907274485
8.769998437,-0.00015708,0.621284842,0.849678636
8.78,-0.043458696,0.616537571,0.811141789
8.790004687,-0.022916174,0.599555492,0.777579069
8.799998437,0.034470253,0.566708386,0.751626015
8.809998437,0.088104218,0.527141809,0.725376308
8.819998437,0.125087753,0.502916634,0.700435519
8.829998437,0.147742122,0.489826649,0.677065551
8.839998437,0.147201061,0.459248483,0.683086932
8.85,0.144234002,0.391180634,0.732200503
8.86,0.172072008,0.262200803,0.795032382
8.869998437,0.235270381,0.108123146,0.844931364
8.879998437,0.319133461,-0.018011797,0.877219915
8.889998437,0.404741853,-0.120288089,0.894568503
8.899998437,0.485218972,-0.199124619,0.897762477
8.909998437,0.545589924,-0.220731795,0.882141769
8.92,0.587774515,-0.198426485,0.847741306
8.93,0.627026975,-0.180903375,0.796149373
8.94,0.670171499,-0.159208938,0.740159214
8.949998437,0.698725104,-0.160675004,0.697328866
8.959998437,0.7025823,-0.149888873,0.681411445
8.969998437,0.69244194,-0.114772849,0.687851727
8.979998437,0.681097269,-0.069115035,0.697852433
8.990003125,0.67800808,-0.006178466,0.69223249
9,0.677205205,0.068888143,0.655563116
9.009998437,0.693855643,0.146415666,0.585139096
9.019998437,0.727051795,0.213314146,0.503108621
9.029998437,0.752376556,0.251536846,0.418093622
9.039998437,0.761679113,0.267524064,0.320756614
9.049998437,0.756862044,0.265743822,0.235549629
9.06,0.753301561,0.238446876,0.169209674
9.07,0.764960349,0.173572987,0.122940995
9.079998437,0.815784335,0.09482374,0.088488191
9.09,0.905738592,0.02617994,0.048293259
9.099998437,1.016305208,-0.026494099,0.005829399
9.109998437,1.130886078,-0.0567232,-0.037768926
9.119998437,1.215133071,-0.0916996,-0.061924282
9.13,1.260354638,-0.14109242,-0.067230083
9.14,1.273793697,-0.20217894,-0.061540309
9.15,1.289745927,-0.26453954,-0.061889376
9.159998437,1.346626282,-0.358944416,-0.075293504
9.169998437,1.455604553,-0.490524799,-0.093060955
9.179998437,1.617204666,-0.647272825,-0.13311626
9.189998437,1.782958508,-0.768957138,-0.197379291
9.2,1.910123229,-0.838909984,-0.300440967
9.21,1.992415547,-0.867812634,-0.44748497
9.22,2.029189587,-0.861913383,-0.61917299
9.229998437,2.027618885,-0.862786055,-0.813986659
9.239998437,1.97382772,-0.903556943,-1.014682055
9.249998437,1.869090557,-0.963753343,-1.210368395
9.259998437,1.753514886,-1.011557937,-1.395635128
9.269998437,1.668883801,-1.014978766,-1.572820902
9.28,1.620747685,-0.957993746,-1.729481697
9.29,1.596313,-0.834145188,-1.855773687
9.299998437,1.583170652,-0.668146968,-1.980547309
9.309998437,1.562348962,-0.564945638,-2.07348609
9.319998437,1.561912537,-0.540353954,-2.156598568
9.329998437,1.59619081,-0.55649823,-2.247704744
9.339998437,1.644292116,-0.59187603,-2.350295305
9.35,1.690525889,-0.659734428,-2.461839199
9.36,1.730668426,-0.734137833,-2.60153532
9.369998437,1.734612942,-0.839363754,-2.754810333
9.379998437,1.671955585,-0.948534071,-2.890876055
9.389998437,1.542452216,-0.989095509,-3.004758835
9.399998437,1.380119085,-0.961362243,-3.075130463
9.409998437,1.241016388,-0.879453957,-3.118920803
9.42,1.125877023,-0.728622615,-3.153879642
9.43,1.003494501,-0.535501897,-3.186360359
9.439998437,0.861878514,-0.331926703,-3.217130423
9.449998437,0.691377282,-0.140341923,-3.244427443
9.459998437,0.489233255,0.017697638,-3.251338959
9.47,0.291749239,0.132802099,-3.229085922
9.479998437,0.136572018,0.194464579,-3.210114241
9.49,0.023404865,0.184987441,-3.224932194
9.5,-0.050858893,0.113481306,-3.258651972
9.509998437,-0.083950333,-0.013177236,-3.262770891
9.519998437,-0.058520891,-0.2316401,-3.207688332
9.529998437,0.039479349,-0.524104893,-3.084345818
9.539998437,0.186575696,-0.773442626,-2.898974419
9.549998437,0.348489881,-0.931604385,-2.675240755
9.56,0.536863267,-1.062294602,-2.398344278
9.57,0.709773064,-1.133626223,-2.093173265
9.579998437,0.822870374,-1.146140218,-1.781108499
9.589998437,0.862279892,-1.11992538,-1.479620337
9.599998437,0.832661688,-1.062486649,-1.199599743
9.609998437,0.748903334,-0.974330068,-0.939214051
9.619998437,0.634601712,-0.864217222,-0.704240322
9.63,0.485585511,-0.742916822,-0.498727828
9.64,0.278327644,-0.60383153,-0.31756267
9.65,0.032515485,-0.433976114,-0.157550871
9.659998437,-0.228795215,-0.241571024,0.003001966
9.669998437,-0.472251177,-0.042044982,0.19741419
9.679998437,-0.66514498,0.124075457,0.433417618
9.689998437,-0.801769376,0.229126826,0.694134891
9.699998437,-0.887674451,0.303896725,0.964922726
9.71,-0.929003835,0.336377293,1.227018833
9.72,-0.947242558,0.305624604,1.483477473
9.729998437,-0.967174172,0.253142565,1.738313079
9.739996875,-0.9896366,0.189874366,1.988558292
9.749998437,-0.97871083,0.117896989,2.24562788
9.759998437,-0.910747707,0.025237462,2.516206264
9.769998437,-0.817093313,-0.063791782,2.786802053
9.78,-0.744330585,-0.106011301,3.047048092
9.79,-0.700313389,-0.093636915,3.292319298
9.799998437,-0.688008785,-0.015498524,3.512195826
9.809998437,-0.716789246,0.156206965,3.747867584
9.819998437,-0.752027452,0.366903126,3.96002984
9.829998437,-0.750561416,0.601876795,4.128750801
9.839998437,-0.688619673,0.82842052,4.212701321
9.85,-0.635753632,1.057320476,4.220380783
9.86,-0.650257289,1.308787465,4.181686878
9.869998437,-0.745883882,1.569784045,4.087630749
9.879998437,-0.893294394,1.802296758,3.954741478
9.889998437,-1.013390541,2.011300087,3.763662815
9.899998437,-1.098248482,2.216777563,3.484811544
9.909998437,-1.22106719,2.403510332,3.172450066
9.92,-1.394273758,2.52472353,2.882812738
9.93,-1.60790205,2.571341276,2.636372089
9.939998437,-1.828703642,2.531861782,2.474597692
9.949998437,-1.949654937,2.390385389,2.381222486
9.959998437,-1.922148585,2.177071333,2.288912058
9.969998437,-1.784127951,1.963163733,2.160490751
9.979998437,-1.586783528,1.759623528,1.995975971
9.99,-1.3913939,1.566328287,1.823240757
10,-1.268627524,1.410243511,1.676441073
10.00999844,-1.209076881,1.291124821,1.573711038
10.01999844,-1.152632833,1.190733433,1.489830494
10.02999844,-1.096311092,1.128756762,1.399282813
10.03999844,-1.054754853,1.090586424,1.30810678
10.04999844,-1.000283122,1.055016637,1.222655535
10.06,-0.932738841,1.012692332,1.144866228
10.07,-0.868929625,0.966074646,1.053568006
10.07999844,-0.818943381,0.916402578,0.935897887
10.08999844,-0.780982494,0.870256066,0.81192714
10.09999844,-0.762883425,0.816971183,0.712879717
10.10999844,-0.751783133,0.715916574,0.651967764
10.11999844,-0.706038058,0.593621373,0.622838199
10.13,-0.622681141,0.466980278,0.598543227
10.14,-0.510822952,0.341805279,0.557615221
10.14999844,-0.399732769,0.243124366,0.487941682
10.16000156,-0.332537591,0.179576933,0.401530445
10.16999844,-0.32609731,0.145036861,0.305711865
10.17999844,-0.364529461,0.152437061,0.202196389
10.18999844,-0.436314851,0.196506619,0.097546451
10.19999844,-0.52178365,0.269827902,-0.000977384
10.21000313,-0.601911724,0.334876329,-0.084334306
10.22,-0.651269615,0.38002798,-0.148091182
10.22999844,-0.657256067,0.410606146,-0.189071521
10.23999844,-0.624932587,0.423643768,-0.208601758
10.24999844,-0.566743314,0.41619122,-0.228184342
10.25999688,-0.508833289,0.379713833,-0.251205236
10.26999844,-0.449893534,0.318487674,-0.273545444
10.28,-0.389068782,0.230889603,-0.299777746
10.29,-0.335399926,0.149661988,-0.330547899
10.29999844,-0.282778233,0.092694439,-0.358159006
10.31000313,-0.228882477,0.058712877,-0.371563137
10.31999844,-0.188844621,0.053110369,-0.365314871
10.32999844,-0.155229583,0.059882246,-0.343777508
10.33999844,-0.134966314,0.048397981,-0.318557501
10.35,-0.132470489,0.039933134,-0.293128043
10.36000781,-0.142750472,0.044174284,-0.272061914
10.36999844,-0.144356176,0.040491637,-0.254346818
10.37999844,-0.125332087,0.02883284,-0.233036354
10.38999844,-0.090809479,0.005532694,-0.210085288
10.39999844,-0.043964844,-0.022392575,-0.180641577
10.41000313,0.003647738,-0.063512534,-0.151459679
10.42,0.046739917,-0.108594388,-0.125768423
10.43,0.070284411,-0.129276544,-0.116221473
10.43999844,0.064804077,-0.117076688,-0.125995323
10.44999844,0.032794736,-0.057019908,-0.147218525
10.46000469,-0.013508848,0.030333823,-0.167342171
10.47,-0.0652055,0.11451105,-0.179751456
10.47999844,-0.110863313,0.181060463,-0.176103726
10.49,-0.136292756,0.216351017,-0.158999488
10.5,-0.138858393,0.215391085,-0.140219748
10.51000313,-0.122696646,0.189577669,-0.131964341
10.51999844,-0.094876096,0.159994334,-0.1373225
10.52999844,-0.061714843,0.121090941,-0.161320776
10.53999844,-0.029426251,0.078941241,-0.194307506
10.54999844,0.002530727,0.037611846,-0.225479081
10.56000469,0.02539454,0.012758357,-0.243054554
10.57,0.038222712,-8.72665E-05,-0.235689268
10.58,0.049427725,0.003857178,-0.206734255
10.58999844,0.064420104,0.014556046,-0.164951071
10.59999844,0.079133227,0.006091199,-0.12946853
10.61000156,0.079395026,-0.001151917,-0.114807755
10.61999844,0.059061941,-0.000383972,-0.114842661
10.63,0.024574235,-0.00736529,-0.120183371
10.64,-0.013997541,-0.008779006,-0.125768423
10.65,-0.045727625,0.005707227,-0.140219748
10.66000469,-0.062133722,0.038501963,-0.159383461
10.66999844,-0.0628144,0.073530719,-0.171775311
10.67999844,-0.058765236,0.09985029,-0.168965325
10.68999844,-0.062395521,0.107006133,-0.156782925
10.69999844,-0.080808744,0.098785639,-0.141266942
10.71000156,-0.102136664,0.097878061,-0.12538445
10.72,-0.116587996,0.101298906,-0.114860117
10.72999844,-0.11878711,0.103428215,-0.113411494
10.73999844,-0.117530473,0.111107662,-0.11400491
10.74999844,-0.114982292,0.102695175,-0.108908542
10.75999844,-0.113952547,0.085922562,-0.104021624
10.76999844,-0.107023589,0.067788586,-0.090565138
10.78,-0.089448124,0.044121925,-0.072483525
10.79,-0.056601029,0.016929694,-0.052516956
10.79999844,-0.028780479,0.000802851,-0.034365531
10.81000469,-0.016510814,-0.010384709,-0.009442232
10.81999844,-0.013823007,-0.020385446,0.021188296
10.82999844,-0.008552114,-0.028989919,0.052464597
10.83999844,-0.002024582,-0.036669366,0.071645766
10.85,0.007190756,-0.045221481,0.076672316
10.86,0.012461651,-0.050544735,0.066654123
10.86999844,0.012863076,-0.056915186,0.056217056
10.87999844,0.007766715,-0.063268185,0.057386424
10.88999844,-0.001413717,-0.064891338,0.069184855
10.89999844,-0.010070549,-0.071087264,0.091437802
10.90999844,-0.008709193,-0.079272851,0.129643053
10.92,0.002652901,-0.100059725,0.16554448
10.93,0.036145769,-0.132138878,0.178931147
10.93999844,0.079499744,-0.161896735,0.162629783
10.94999844,0.118717298,-0.206873879,0.126937792
10.95999844,0.146729827,-0.269059956,0.097302109
10.96999844,0.151599303,-0.319203258,0.081367247
10.97999844,0.120288089,-0.36147514,0.09812241
10.99,0.101159282,-0.397446364,0.150045961
11,0.125890598,-0.427762747,0.202213854
11.00999844,0.173712626,-0.426907539,0.243421063
11.01999844,0.21322687,-0.391023576,0.261275798
11.02999844,0.226631001,-0.328593135,0.232041523
11.03999844,0.198827907,-0.249529719,0.167150185
11.04999844,0.131702542,-0.192317829,0.083269656
11.06,0.055798177,-0.174463108,-0.012147492
11.07,-0.023614304,-0.208060697,-0.103463121
11.08,-0.102171578,-0.286356181,-0.168337002
11.08999844,-0.161844388,-0.403048873,-0.198845357
11.09999844,-0.199875101,-0.51769954,-0.206978589
11.10999844,-0.213314146,-0.636643767,-0.220976129
11.11999844,-0.186924756,-0.781610787,-0.254573733
11.13,-0.134774327,-0.90828681,-0.316602737
11.14,-0.066601761,-1.036306739,-0.417936534
11.15,1.74533E-05,-1.191990018,-0.532150865
11.15999844,0.056810468,-1.353590131,-0.623920321
11.16999844,0.091036372,-1.527110696,-0.69792223
11.17999844,0.106988683,-1.704558372,-0.750840664
11.18999844,0.091909036,-1.839035988,-0.790965736
11.19999844,0.055780724,-1.92558682,-0.812887073
11.21,0.045884706,-1.956898093,-0.831405044
11.22,0.073687799,-1.960947275,-0.857637346
11.22999844,0.123377323,-1.965520024,-0.905686259
11.23999844,0.185161978,-1.976917028,-0.972078562
11.24999844,0.247417867,-1.993480206,-1.075855851
11.25999688,0.263823956,-1.999082685,-1.223440886
11.26999844,0.175126344,-1.961907148,-1.393244028
11.28,-0.028012535,-1.879667282,-1.554948688
11.29,-0.268117487,-1.743653774,-1.689478755
11.29999844,-0.479459405,-1.539310575,-1.784197688
11.30999844,-0.616677165,-1.325263381,-1.817201853
11.31999844,-0.650972903,-1.145267606,-1.823013902
11.32999844,-0.574440241,-1.011837125,-1.849665046
11.33999844,-0.429473162,-0.914831758,-1.91350913
11.35,-0.280683845,-0.820514202,-1.9888376
11.36,-0.192579627,-0.76447165,-2.048335791
11.36999844,-0.188251212,-0.749025524,-2.08985734
11.37999844,-0.28045696,-0.756338418,-2.101847649
11.38999844,-0.410990119,-0.778748453,-2.084516525
11.39999844,-0.510334253,-0.818349957,-2.049383163
11.40999844,-0.551192403,-0.891252398,-2.001142263
11.42,-0.528572977,-0.968465745,-1.928047776
11.43,-0.455408752,-1.044247985,-1.814409375
11.43999844,-0.355872631,-1.10533452,-1.66001761
11.44999844,-0.24804619,-1.147571445,-1.485571861
11.45999844,-0.146293491,-1.181500673,-1.319067478
11.46999844,-0.080215335,-1.188045621,-1.178463817
11.47999844,-0.078819066,-1.194625497,-1.055208564
11.49,-0.142750472,-1.175025463,-0.939894676
11.5,-0.258046925,-1.158706665,-0.836065054
11.50999844,-0.391250461,-1.138478279,-0.731118441
11.51999844,-0.489390314,-1.082208872,-0.62077868
11.52999844,-0.524925232,-1.025782347,-0.516530216
11.53999844,-0.49811697,-0.978920281,-0.421758801
11.54999844,-0.42348668,-0.942617416,-0.353115022
11.56,-0.328121901,-0.91249305,-0.306427449
11.57,-0.251362324,-0.885754585,-0.272690237
11.58,-0.207170576,-0.866364002,-0.246423036
11.58999844,-0.179123133,-0.853797615,-0.223559216
11.59999844,-0.161896735,-0.833167851,-0.210277274
11.60999844,-0.165108144,-0.801490068,-0.203906819
11.61999844,-0.189630017,-0.750631213,-0.187116742
11.63,-0.231360838,-0.701657236,-0.152646497
11.64,-0.264033407,-0.673173487,-0.11730358
11.65,-0.271224171,-0.64069289,-0.106709428
11.65999844,-0.244852245,-0.593918085,-0.117966801
11.67,-0.191183358,-0.498745292,-0.132295951
11.67999844,-0.124319799,-0.3887721,-0.14744541
11.68999844,-0.080581851,-0.292098314,-0.158283904
11.69999844,-0.089605205,-0.216961876,-0.165823728
11.71,-0.13425073,-0.146031693,-0.174707457
11.72,-0.19706513,-0.088854715,-0.178913698
11.72999844,-0.255865276,-0.041887902,-0.170309231
11.73999844,-0.305450082,0.008709193,-0.154985234
11.74999844,-0.34564501,0.084473938,-0.126780719
11.75999844,-0.376537323,0.156119704,-0.098593652
11.76999844,-0.386154085,0.208147973,-0.081087999
11.78,-0.380185068,0.264696628,-0.087057024
11.79,-0.367513984,0.309900671,-0.116692714
11.79999844,-0.365087986,0.330565363,-0.166172802
11.80999844,-0.376589686,0.343690246,-0.213034883
11.81999844,-0.413852483,0.35236451,-0.238953024
11.82999844,-0.467887878,0.351264954,-0.239790782
11.83999844,-0.520125568,0.348262995,-0.215984493
11.85,-0.533791482,0.307212859,-0.18762289
11.86,-0.512201786,0.306759059,-0.172665417
11.86999844,-0.540528476,0.348524809,-0.190153629
11.87999844,-0.610743046,0.399121881,-0.241675735
11.88999844,-0.692511737,0.426541001,-0.342171788
11.89999844,-0.758066297,0.465042979,-0.445931613
11.90999844,-0.800896704,0.53031832,-0.503597319
11.92,-0.81464988,0.599677682,-0.506703973
11.93,-0.771941662,0.654515922,-0.459545195
11.93999844,-0.68699652,0.688916385,-0.384426206
11.94999844,-0.592870891,0.705636621,-0.293110579
11.95999844,-0.500420809,0.721152604,-0.198147222
11.96999844,-0.419577152,0.739687979,-0.102101758
11.97999844,-0.361702025,0.734382212,-0.022026055
11.99,-0.314037085,0.738169551,0.0198793
12,-0.271398693,0.742393255,0.045832347
12.00999844,-0.241972446,0.711099505,0.069865532
12.01999844,-0.228289068,0.644462824,0.102660269
12.02999844,-0.224274814,0.574841619,0.143082097
12.03999844,-0.235811427,0.494748473,0.195197627
12.04999844,-0.245166406,0.405300349,0.256895006
12.06,-0.23256512,0.333235711,0.313583314
12.07000156,-0.189682379,0.296269625,0.35384804
12.08,-0.13540265,0.280404598,0.365943193
12.08999844,-0.088872164,0.266267419,0.345034152
12.09999844,-0.058154371,0.252374619,0.304193437
12.10999844,-0.053983033,0.229214087,0.24712117
12.11999844,-0.064367741,0.201568082,0.173904613
12.13,-0.062954023,0.185511053,0.116919607
12.14,-0.051539574,0.155561194,0.094876096
12.15,-0.027768189,0.096097827,0.109432146
12.15999844,0.00280998,0.050195668,0.148038819
12.16999844,0.042743113,0.034801867,0.195983022
12.17999844,0.08635889,0.04363323,0.241605923
12.18999844,0.118315868,0.067963123,0.288153857
12.19999844,0.142785385,0.109135434,0.318382949
12.21,0.161181152,0.159697622,0.323810935
12.22,0.181653872,0.231011778,0.303285867
12.22999844,0.192823976,0.2842094,0.273161471
12.23999688,0.195668861,0.292429924,0.242583305
12.24999844,0.186540782,0.290562421,0.218410507
12.25999844,0.1619142,0.279357404,0.197187304
12.26999844,0.128316611,0.277559698,0.179472208
12.28,0.085224427,0.283458918,0.16622515
12.29,0.031642821,0.29558897,0.160779729
12.29999844,-0.025010569,0.339309454,0.156433865
12.30999844,-0.072134458,0.404741853,0.151634201
12.31999844,-0.099728115,0.460993826,0.146677464
12.32999844,-0.107931159,0.491886139,0.141057506
12.33999844,-0.102590457,0.501642525,0.134006381
12.35,-0.092013761,0.519601941,0.125628799
12.36,-0.084962629,0.532953739,0.114214346
12.36999844,-0.093951076,0.507821023,0.097912967
12.37999844,-0.118263513,0.475113541,0.078330375
12.38999844,-0.147969007,0.44669956,0.069341928
12.39999844,-0.167761043,0.427012265,0.071733035
12.40999844,-0.173817337,0.394234955,0.087039568
12.42,-0.154444188,0.353202283,0.12100368
12.43,-0.115139373,0.320320278,0.175056517
12.43999844,-0.061732296,0.32836625,0.229999483
12.44999844,0.001117011,0.366082817,0.262846589
12.45999844,0.064228117,0.384792745,0.256877571
12.47,0.117757365,0.370899916,0.233751953
12.47999844,0.139696151,0.338541508,0.211324468
12.49,0.122696646,0.315415889,0.192841426
12.5,0.067352258,0.297927707,0.180362329
12.50999844,-0.008150687,0.306200564,0.175615028
12.51999844,-0.08026769,0.329029471,0.166923285
12.52999844,-0.12463396,0.364267677,0.152890846
12.53999844,-0.138596594,0.432300597,0.134669602
12.54999844,-0.135001212,0.489774287,0.115296453
12.56,-0.120462626,0.505883694,0.094230324
12.57,-0.110968031,0.510840416,0.073583081
12.58000156,-0.112067588,0.52178365,0.048485246
12.58999844,-0.131091684,0.54169786,0.012426744
12.59999844,-0.176906571,0.554700553,-0.022968533
12.60999844,-0.244922057,0.549132943,-0.04935791
12.61999844,-0.309167624,0.529253662,-0.0567232
12.62999844,-0.336464584,0.489634663,-0.031712633
12.64,-0.314333797,0.432318062,0.019757127
12.65,-0.255446374,0.396207184,0.07771951
12.65999844,-0.173450828,0.366833299,0.111613803
12.66999844,-0.079168133,0.343847305,0.121248022
12.67999844,-0.032201324,0.31014502,0.112469018
12.68999844,-0.028867746,0.273754895,0.091717049
12.69999844,-0.044226643,0.25373596,0.071157075
12.71,-0.058416169,0.240680903,0.048555061
12.72,-0.060126591,0.23767893,0.034487706
12.72999844,-0.062552601,0.233437791,0.028658306
12.73999844,-0.060178954,0.223646492,0.045064401
12.74999688,-0.055134952,0.209317341,0.074682638
12.75999844,-0.044156831,0.192841426,0.094317593
12.76999844,-0.031590458,0.174340934,0.087545715
12.78,-0.016685348,0.149033666,0.058259089
12.79,-0.003228859,0.119205989,0.03010693
12.79999844,-0.004694936,0.089867003,0.010541788
12.80999844,-0.014695672,0.073583081,-0.002391101
12.81999844,-0.028989919,0.074036866,-0.008063421
12.82999844,-0.046827182,0.087371185,-0.002199115
12.84000156,-0.060301125,0.091123641,0.002199115
12.85,-0.058660515,0.0951728,0.003316126
12.86,-0.050684363,0.093270391,-0.003647738
12.87000156,-0.04436627,0.088226393,-0.02263692
12.88000313,-0.163746789,0.118856922,-0.031904619
12.88999844,-0.248063639,-0.022218041,-0.016667895
12.89999844,-0.255778015,-0.101455986,-0.03333579
12.90999844,-0.222494572,-0.113498762,-0.073862337
12.92,-0.144234002,-0.114284158,-0.111317098
12.93,-0.016475908,-0.045657814,-0.142471224
12.93999844,0.11803662,0.028693212,-0.15371114
12.94999844,0.20751965,0.082833327,-0.126082584
12.95999844,0.191759318,0.035761796,-0.036075957
12.96999844,0.12777555,-0.090111353,0.054384459
12.97999844,0.043161992,-0.208165422,0.100548416
