Time (s),Acceleration x (m/s^2),Acceleration y (m/s^2),Acceleration z (m/s^2)
0,-2.749625683,5.833836079,5.928320885
0.009998438,-3.044620037,6.185946465,5.60380125
0.019996875,-3.215173244,6.288408756,5.682513237
0.029998438,-3.117825031,6.226772308,5.93551302
0.039996875,-2.894991875,6.181091309,6.272827148
0.049998438,-2.709441423,6.292967319,6.469649792
0.06,-2.489548206,6.386034966,6.463089943
0.07,-2.366859913,6.439846992,6.462754726
0.079998438,-2.375660896,6.476276875,6.426161766
0.089998438,-2.601347923,6.533603668,6.41318512
0.099998438,-2.746800423,6.765678406,6.289921761
0.109998438,-2.734494209,6.724766254,6.242306232
0.119996875,-2.704490185,6.673789024,6.287594795
0.129996875,-2.720320702,6.751657963,6.203213692
0.14,-2.738238811,6.831566811,6.14191246
0.15000625,-2.81202817,6.834190845,6.175076962
0.159998438,-2.953984976,6.853057384,6.267943382
0.169998438,-3.095741034,6.907290936,6.386868
0.179996875,-3.123513699,6.915949345,6.609854221
0.189998438,-3.10323,6.906237125,6.703199387
0.199996875,-3.004991055,6.833118439,6.789687634
0.21,-2.896533728,6.725771904,6.781805992
0.220001563,-2.82855773,6.615179062,6.799254894
0.230001563,-2.859203339,6.511194229,6.806571484
0.24,-2.904540062,6.390861511,6.843012333
0.25,-2.975034952,6.301596165,6.916733742
0.260009375,-3.140924454,6.294365406,7.072547913
0.27,-3.227144241,6.267818451,7.219743729
0.279998438,-3.153278351,6.181033611,7.256988049
0.290001563,-2.935961485,6.018467426,7.100119591
0.300001563,-2.756492138,5.926778793,7.037573814
0.31,-2.743965626,5.874240875,7.071619034
0.32,-2.844311476,5.715237141,7.0258708
0.33,-3.049149752,5.486217022,7.011898041
0.34,-3.24636507,5.166045189,7.06028986
0.350003125,-3.31960845,4.740087986,6.966245651
0.360001563,-3.440065384,4.328103542,6.961715698
0.370001563,-3.638611794,4.012155056,7.086905003
0.38,-3.998632669,3.773874521,7.180383205
0.39,-4.525222778,3.731162071,7.690588474
0.40000625,-5.224195957,4.009809017,8.679279327
0.41,-6.081119061,3.733211517,9.215751648
0.42,-5.654702187,2.990204573,8.835178375
0.43,-4.582262516,2.442459106,8.303751945
0.44,-3.618778229,2.172584772,8.99527359
0.449998438,-2.544863939,1.928433657,9.241609573
0.46,-1.568786263,1.737644434,8.753746986
0.47,-1.4331882,1.705696225,8.344615936
0.48,-2.230323315,2.384845018,7.889057159
0.49,-2.594414234,3.290226698,8.110836983
0.500001563,-2.163888931,3.538582087,8.843194008
0.51,-1.430660009,3.176942825,8.989624023
0.520004688,-0.671793818,2.766902208,8.624163628
0.53,0.038680721,2.741092682,7.918141842
0.54,0.173924387,2.963581085,7.451416016
0.55,-0.007805097,3.420538425,7.321075916
0.56,-0.219021559,3.79415822,7.686258793
0.570001563,-0.601394713,3.779659033,7.750825405
0.580001563,-0.685182214,3.570367575,7.855614662
0.590001563,-0.489844084,3.308393955,7.949726105
0.6,-0.36993289,3.215968132,8.037353516
0.610007813,-0.127256602,3.259983301,8.081378937
0.62,0.121558405,3.335544109,7.997495174
0.63,0.202424958,3.40870142,7.932487965
0.64,0.433350503,3.52609396,8.056814194
0.650001563,0.632433116,3.663923264,7.847742558
0.660004688,0.831956327,3.63032794,7.639083385
0.67,0.935443282,3.884888887,7.009819984
0.68,0.920886576,4.123715401,7.078505039
0.69,1.387363195,4.063764572,7.032546043
0.7,1.804500222,4.191969395,7.438238621
0.710003125,1.962009907,4.325958252,7.60304594
0.720001563,2.30526185,4.308461666,7.855614662
0.730001563,3.100031376,4.2965765,7.931807995
0.74,3.727226019,4.450437546,7.316488743
0.75,4.043203354,4.616087914,7.075018883
0.76000625,4.461163521,4.695354939,7.228467941
0.77,4.823023319,4.741304398,7.137316227
0.78,5.089296818,4.87728548,6.377588272
0.790001563,5.413529396,5.088645458,6.197926998
0.8,5.935426712,5.318555832,5.80095911
0.81000625,6.436332226,5.599309921,5.637071133
0.82,6.773062229,5.82975626,5.727820873
0.83,7.01534605,6.002090931,5.793527126
0.84,7.074185848,6.144919395,5.929661751
0.85,7.202878952,6.212378502,6.083350182
0.860007813,7.473328114,6.210271835,5.944898129
0.870001563,7.678338528,6.138397694,5.344930649
0.88,8.254162788,6.054782391,5.067586422
0.89,9.207611084,6.166907787,4.923579693
0.9,10.07821941,6.503897667,4.73419857
0.91,10.61040211,6.919597149,4.54187727
0.92,10.72993088,7.282080173,4.279597282
0.930001563,10.77660942,7.388841152,3.964137077
0.940001563,10.97778797,7.384598732,3.635700464
0.95,11.06495571,7.417562008,3.259619236
0.96000625,11.03905106,7.51265049,2.907824993
0.97,11.12462044,7.492912292,2.745545864
0.98,11.25699043,7.389894962,2.902231932
0.99,11.35074711,7.317542076,3.18451786
1.000001563,11.54671764,7.176754475,3.556672573
1.010001563,11.73946953,7.037065983,4.107118607
1.02,11.8198576,6.933176994,4.88386488
1.03,11.75715828,6.873456001,5.231330395
1.04,11.57257557,6.793422699,4.992245674
1.05,11.35155106,6.677322865,4.558215141
1.06,11.23365116,6.555160999,4.288379192
1.070001563,11.0425272,6.433583736,4.02141571
1.080001563,10.95023537,6.309688568,3.924968004
1.090001563,10.98390865,6.218737602,3.988998413
1.1,11.0318203,6.168535709,4.101487637
1.11,10.96128654,6.116592407,4.234854221
1.12,10.75623798,6.044956684,4.453042507
1.13,10.49683094,5.940301418,4.672724724
1.14,10.13387966,5.77285099,4.739695549
1.150001563,9.768151283,5.510791302,4.783968925
1.160001563,9.489130974,5.202667236,4.974442482
1.17,9.214372635,4.862029552,5.237373352
1.18,8.934192657,4.637310028,5.501971245
1.19,8.613754272,4.453933239,5.636295319
1.2,8.243274689,4.254343033,5.741429329
1.21,7.810307026,4.020668983,6.062606812
1.220001563,7.292575359,3.761338711,6.433449745
1.230001563,7.012147427,3.545496464,6.604194641
1.24,6.703065395,3.410999775,6.749014854
1.25,6.225010395,3.307742834,6.790482521
1.26,5.721835136,3.16795969,6.745634079
1.27,5.224550247,2.98675704,6.733682632
1.28,4.728749275,2.792759657,6.714002132
1.290001563,4.239546776,2.615674734,6.728319645
1.3,3.847683191,2.452821255,6.905817032
1.31,3.441272259,2.317941427,7.185381889
1.32,3.029603481,2.235695839,7.560975075
1.33,2.584550142,2.168916702,8.011851311
1.34,2.250233412,2.055718899,8.404118538
1.35,1.965792775,1.911808252,8.767145157
1.360001563,1.64842701,1.778623581,9.116823196
1.370001563,1.376005173,1.636072874,9.362832069
1.38,1.156102538,1.589797735,9.38289547
1.39,0.973233402,1.618509054,9.367897987
1.4,0.766910672,1.715981722,9.337501526
1.41,0.570145607,1.852623582,9.20359993
1.42,0.472174853,1.990989327,9.180231094
1.43,0.333857059,2.13374114,9.238957405
1.440001563,0.238156021,2.311266422,9.229991913
1.449998438,0.178300977,2.528573751,9.218844414
1.46,0.15887922,2.670866013,9.262036324
1.47000625,0.07091625,2.763148069,9.235499382
1.48,-0.113829918,2.808609247,9.209019661
1.49,-0.320143074,2.875445604,9.19485569
1.500001563,-0.532930136,3.021482468,9.335777283
1.510001563,-0.761413574,3.286376953,9.603479385
1.520001563,-1.046697021,3.615100861,9.821292877
1.53,-1.271158218,3.81856966,9.98399353
1.54,-1.415557384,3.941650629,9.986158371
1.55,-1.526313066,4.041699409,9.828034401
1.56,-1.729245663,4.13424015,9.750654221
1.570001563,-1.917018056,4.303395271,9.810366631
1.58,-2.049005508,4.59530592,9.709100723
1.590001563,-2.017153263,4.94998312,9.794421196
1.6,-1.988595128,5.155644894,10.06006241
1.61,-2.091631889,5.319657326,10.09060287
1.62,-2.243328571,5.497393131,9.993226051
1.63,-2.322595835,5.674822807,9.738022804
1.64,-2.534760475,5.905154705,9.381803513
1.650001563,-2.774697781,6.166036606,9.157170296
1.660001563,-2.922209263,6.356070042,8.976858139
1.67,-2.770579576,6.400131702,8.761113167
1.68,-2.527156353,6.382750034,8.735216141
1.690007813,-2.396682024,6.461615086,8.913909912
1.7,-2.287295818,6.620589733,9.365322113
1.71,-1.943153143,6.805307388,9.887257576
1.720001563,-1.545457125,6.949831009,10.44037533
1.730001563,-1.09800005,6.922048569,10.86819172
1.74,-0.453624576,6.752635002,11.10872269
1.75,0.250768661,6.540202141,11.13534546
1.76,0.953849912,6.363692284,11.08335304
1.77,1.693974257,6.327079773,11.15131092
1.78,2.410645008,6.363586903,10.99572563
1.790001563,3.16812253,6.314343929,11.00608826
1.800001563,3.604547024,6.270500183,11.04603195
1.81,3.814087629,6.23084259,10.98243237
1.82,4.084230423,6.189892292,11.05365562
1.83,4.556452751,6.22312355,11.18600655
1.84,5.195503712,6.246166706,11.27590466
1.85,5.727715492,6.207839012,11.26917171
1.860001563,6.083197117,6.051995754,11.05069637
1.870001563,6.176388741,5.8128438,10.59450531
1.88,6.103423119,5.565848351,9.970288277
1.89,5.896842003,5.434684277,9.420351028
1.9,5.613732338,5.311689377,8.891767502
1.91,5.362973213,5.163775921,8.406137466
1.92,5.283207893,4.890396118,8.169849396
1.93,5.249583721,4.56754303,8.00332737
1.940001563,5.050712109,4.325901031,7.972720146
1.95,4.893288612,4.140197277,8.186657906
1.96,4.8255229,4.069568157,8.426449776
1.97,4.702547073,4.025668144,8.606753349
1.98,4.606539726,3.994102955,8.732783318
1.99,4.526123047,3.928951979,8.770029068
2.000001563,4.641514301,3.786133051,8.775478363
2.010001563,4.872085571,3.507945776,8.681568146
2.020001563,5.178188801,3.285237312,8.436477661
2.03,5.447546005,3.338905573,8.260627747
2.04,5.623806953,3.43874383,8.0001688
2.05,5.834640503,3.507237196,7.750288963
2.06,6.202246189,3.563070059,7.663571358
2.070001563,6.767632008,3.639550447,7.655823708
2.08,7.348733902,3.688133478,7.448073864
2.090001563,8.136504173,3.652670622,6.976655483
2.1,8.925755501,3.618538857,6.384253502
2.11,9.496639252,3.532012463,5.710381508
2.12,9.753901482,3.509947538,5.211765289
2.13,9.548354149,3.473890781,4.954177856
2.14,9.1920681,3.452304602,4.842282295
2.15,8.933493614,3.367789268,4.862642765
2.160001563,8.733607292,3.169740915,5.028398037
2.17,8.602989197,2.951207876,5.496636868
2.18,8.50630188,2.815829992,5.960680962
2.19,8.368443489,2.776239634,6.266458988
2.2,8.239233017,2.816883564,6.599923134
2.21,7.995187283,2.909491301,7.095810413
2.220001563,7.717411995,2.99099946,7.466700554
2.230001563,7.485519409,2.988490343,7.770036697
2.24,7.242153168,2.932849169,8.059313774
2.25,7.058910847,2.835692406,8.114831924
2.26,6.724373817,2.697422504,8.170423508
2.27,6.398360252,2.687175274,8.455401421
2.28,6.3471241,2.733795166,8.641937256
2.290001563,6.422244549,2.758388281,8.779413223
2.300001563,6.477110386,2.703312159,9.006986618
2.31,6.427176952,2.568872929,9.168671608
2.32,6.240917206,2.419972897,9.201874733
2.33,5.884545326,2.311103582,9.279935837
2.34,5.547192574,2.220037699,9.343688011
2.35,5.36020565,2.136384487,9.493881226
2.360001563,5.349356174,2.114127874,9.634008408
2.370001563,5.337134838,2.140397072,9.683330536
2.38,5.289471149,2.026940584,9.766082764
2.39,5.271428585,1.82049346,9.850712776
2.4,5.069951534,1.560818315,9.885725021
2.41,4.806886673,1.34376955,9.863928795
2.42,4.522177696,1.153143287,9.829539299
2.43,4.265049934,0.877561092,9.847533226
2.44,3.914567471,0.610827863,9.89922905
2.45,3.544701576,0.454927027,10.08315086
2.46,3.261640072,0.306754678,10.26252651
2.47,3.100605965,0.117507413,10.29813099
2.480001563,3.076070309,-0.041141961,10.37163353
2.49,3.096181393,-0.205077738,10.36990166
2.500001563,2.841629982,-0.275716245,10.44097996
2.510001563,2.561968088,-0.134132758,10.54344177
2.520001563,2.417320013,0.049272668,10.68039894
2.53,2.260643482,0.166368276,10.79840565
2.54,2.08447814,0.266943902,10.84191227
2.55,1.957901478,0.383809656,10.97270298
2.56,1.810907006,0.426359415,11.23900509
2.570001563,1.551959753,0.442572951,11.40471268
2.580001563,1.245061398,0.434116632,11.58420086
2.590001563,0.974440038,0.452264696,11.96452618
2.6,0.753503144,0.468123883,12.36009407
2.61,0.599488914,0.538350582,12.82296085
2.62,0.547400653,0.621458113,13.21120548
2.63,0.524081171,0.641454518,13.51679993
2.64,0.540371299,0.654153347,13.67485619
2.65,0.684272408,0.674887121,13.7995472
2.660001563,0.812438786,0.748504043,13.90149117
2.67,0.845248938,0.843975246,13.91387367
2.68,0.709555149,0.9987939,13.93070126
2.69,0.618527591,1.162279487,14.04440594
2.7,0.623660803,1.253967881,13.97889996
2.71,0.642258942,1.313679218,13.71284676
2.720001563,0.556967914,1.428955317,13.40341091
2.73,0.411151439,1.663309336,13.1451931
2.74,0.228627101,1.904280901,12.942173
2.75,0.071490861,2.10291338,12.81359482
2.76,-0.046208091,2.203699827,12.73432827
2.77,-0.156398833,2.229729414,12.7817421
2.78,-0.221990377,2.300933123,12.77372646
2.790001563,-0.24661234,2.320402622,12.66829491
2.8,-0.202673957,2.364781618,12.4761095
2.81,-0.214012891,2.454018354,12.19775009
2.82,-0.433781445,2.617542267,11.83805275
2.83,-0.711326897,2.790556908,11.5584774
2.84,-0.851866484,2.880540609,11.24984741
2.85,-0.871585131,2.853275299,10.92559433
2.860001563,-0.780193686,2.760207891,10.6502142
2.870001563,-0.711939812,2.671670437,10.41898155
2.88,-0.592957556,2.710523605,10.26858807
2.89,-0.441203475,2.770158291,10.13336372
2.9,-0.315622807,2.848209381,10.05892277
2.91,-0.286538035,2.946610928,10.01566315
2.92,-0.343606234,3.019931078,9.926321983
2.93,-0.421408206,3.00165844,9.737850189
2.940001563,-0.40331763,2.836477757,9.588950157
2.95,-0.300778747,2.644548893,9.327895164
2.96,-0.171319485,2.395666838,9.040237427
2.97,-0.129420966,2.197867393,8.712834358
2.98,-0.160804152,2.131117105,8.488248825
2.99,-0.184717447,2.123800516,8.42372036
3.000001563,-0.141746312,1.992626905,8.390182495
3.01,-0.023597252,1.763118744,8.212112427
3.020001563,0.121759519,1.492200494,7.992390633
3.03,0.185119674,1.234105587,7.69124794
3.04,0.121893592,1.059606552,7.282519817
3.05,-0.066932298,0.999454677,6.860029221
3.06,-0.189438805,0.991697431,6.666759491
3.070001563,-0.197703585,0.93183285,6.580367565
3.080001563,-0.09098924,0.873797417,6.577312469
3.090001563,0.108964905,0.859049082,6.48564291
3.1,0.308267832,0.830835819,6.320874214
3.11,0.442802787,0.822791338,6.21814394
3.12,0.6050722,0.835854113,6.024041176
3.13,0.862410545,0.814813852,5.867134571
3.14,1.072803378,0.797920346,5.772056103
3.150001563,1.406928658,0.859834433,5.804636478
3.160001563,1.859930754,1.030483484,5.911944389
3.17,2.324204683,1.148364425,5.923570633
3.18,2.830884933,1.106197715,5.698381901
3.19,3.395657778,1.010286093,5.241769314
3.2,3.816912889,0.989964068,4.759500504
3.21,3.851255178,1.164625883,4.355167866
3.22,3.800919533,1.361228108,4.160040379
3.230001563,4.06773901,1.55528295,4.21503973
3.24,4.516287804,1.66713047,4.39074564
3.25,5.012337685,1.580891371,4.470615864
3.26,5.516709805,1.435189843,4.529072762
3.27,6.100847244,1.34172976,4.707996368
3.28,6.708055019,1.416668296,4.879449844
3.290001563,7.203606606,1.699509621,4.782810211
3.3,7.60024929,2.040779114,4.706502438
3.31,7.941375256,2.273313522,4.769843578
3.32000625,8.193331718,2.34900856,4.813054085
3.33,8.417237282,2.358240604,4.901715755
3.34,8.850502968,2.370901346,5.049275398
3.35,9.397021294,2.451528311,5.233638287
3.360001563,10.12444687,2.594921827,5.533076286
3.370001563,10.677948,2.844742537,5.808476925
3.38,11.29006863,3.104781389,5.884545326
3.390004688,11.82907009,3.322768688,5.830131054
3.4,12.23038578,3.548005581,5.752040386
3.41,12.4816246,3.724889278,5.681871414
3.42,12.81008911,3.910717726,5.746237278
3.43,13.26644421,4.185236931,5.892139912
3.440001563,13.84426117,4.461824417,6.255876541
3.45,14.39024448,4.691974163,6.766119003
3.46,15.17060089,4.872382164,7.254545689
3.47,16.124403,5.026003838,7.307591915
3.48,16.91669083,5.337546825,6.959168434
3.49,17.30744553,5.872086048,6.554059982
3.500001563,17.22325516,6.428814411,6.18789053
3.510001563,16.9474144,6.746630192,5.774900436
3.520001563,16.64761162,6.724805832,5.529877663
3.530003125,16.48812866,6.514526844,5.347526073
3.54,16.26812172,6.294423103,5.142888546
3.55,15.87757015,6.244125843,4.795106888
3.56,15.49287891,6.262206554,4.462121487
3.57,14.91050434,6.282940388,4.239068031
3.580003125,14.51002216,6.151910782,4.20234108
3.590001563,14.13047218,5.969970226,4.112931728
3.6,13.64917183,5.831709862,3.962815523
3.61,13.15983486,5.649348736,4.030982971
3.62,12.99896431,5.536677361,4.124385834
3.630004688,12.9650526,5.565043926,3.908275604
3.64,12.95236206,5.729908466,3.34261179
3.650001563,12.93943501,5.900260925,2.808800697
3.660001563,12.76353741,5.985082626,2.30999279
3.67,12.42721844,5.967470646,1.882321358
3.68000625,11.94205761,5.839400291,1.641617894
3.69,11.39830494,5.629199028,1.537901044
3.7,10.94373226,5.36898756,1.501078248
3.71,10.60992336,5.207091808,1.738707542
3.720001563,10.33524323,5.12821722,1.986938357
3.730003125,10.13832283,5.026156902,1.915859222
3.74,9.976552963,4.79395771,1.69026804
3.75,9.795148849,4.591925621,1.731821775
3.76,9.560698509,4.522531986,1.860639453
3.77,9.325003624,4.511508942,1.814670682
3.78,9.014562607,4.479656696,1.836237669
3.790001563,8.659760475,4.432577133,1.921289325
3.8,8.407756805,4.316841125,1.948276758
3.81,8.2870121,4.101727009,1.964442372
3.82,8.070796013,4.007117748,1.952145815
3.83000625,7.694935322,3.95388031,1.80428946
3.84,7.265990257,3.760007381,1.604775906
3.85,6.840827942,3.363345623,1.753465414
3.860001563,6.35138607,3.027391195,2.00876379
3.870001563,5.869413853,2.878261328,2.239430904
3.880003125,5.621345997,2.819833279,2.519542933
3.89,5.307916164,2.827398777,2.59273839
3.9,4.828041553,2.882886887,2.558587551
3.91,4.212741375,2.797174454,2.655495167
3.92,3.547766209,2.576630116,2.933423758
3.93,2.734369755,2.27274847,3.325794935
3.940001563,2.006906033,2.084813356,3.782484293
3.95,1.608070254,1.928002715,4.363729477
3.96,1.428016782,1.87701571,4.827917099
3.97,1.330371618,1.970466256,5.244642258
3.98,1.30377686,2.145309925,5.574975014
3.99,1.274040818,2.272691011,5.812738419
4.000001563,1.178521752,2.377528429,5.900366306
4.010001563,0.955774844,2.429367542,6.031692982
4.020001563,0.792892516,2.423937559,6.169215679
4.03,0.752306044,2.259733677,6.270634174
4.04,0.744654179,2.087542772,6.335794926
4.05,0.782243133,1.972965717,6.43045187
4.06,0.756797552,1.876431584,6.667018414
4.07,0.71759969,1.839828968,7.056296349
4.080001563,0.600264668,2.025140285,7.528203011
4.090001563,0.455731481,2.218132019,8.15128994
4.1,0.338482648,2.268372059,8.891012192
4.11,0.308986068,2.172173023,9.626702309
4.12,0.519963145,1.938326478,10.14395523
4.13,0.931267798,1.604277849,10.65216637
4.14,1.431550622,1.376397729,10.94940376
4.150001563,1.516822457,1.449593306,11.06823158
4.160001563,1.223638177,1.785269976,11.02614117
4.17,1.014566898,2.177957296,11.14143658
4.18,1.030129194,2.478113651,11.51149368
4.19,1.300147295,2.585258961,11.82722282
4.2,1.724600911,2.528937578,12.03100681
4.21,2.235513926,2.454372644,12.09953785
4.220001563,2.921117544,2.434577465,12.31429863
4.23,3.21246314,2.502582312,12.46431923
4.24,2.970897675,2.755256891,12.13961887
4.25,2.518058538,3.075179577,11.98344994
4.26,2.106188774,3.364188433,11.8608942
4.27,1.899846911,3.547048092,11.68908691
4.28,2.167901754,3.551300049,11.57796669
4.290001563,2.583554268,3.338924885,11.50666714
4.300001563,2.98257184,2.946151257,11.39770222
4.31,3.127526283,2.500781775,11.27561855
4.32,2.897252083,2.236682177,11.27180576
4.33,2.542048454,2.271369457,11.45264435
4.34,2.22073698,2.524168491,11.63194275
4.35,2.057107687,2.763703585,11.78414536
4.360001563,2.077994585,2.752709389,11.80569363
4.37,2.065822601,2.629283428,11.74611664
4.38,2.133185625,2.579263926,11.4861927
4.39,2.234786034,2.477720976,11.2842741
4.4,2.101122618,2.410405636,11.21425915
4.41,1.806903958,2.405195713,11.2513876
4.42,1.52646637,2.454066277,11.49754143
4.43,1.106111526,2.404831886,11.82999992
4.44,0.743418753,2.348041296,11.93415737
4.45,0.519752443,2.2091012,11.92459965
4.46,0.305797011,2.125083685,11.80736923
4.47,0.159559175,2.048182011,11.63571453
4.480001563,-0.081067666,1.872303963,11.59702396
4.49,-0.297321528,1.834245682,11.66776848
4.500001563,-0.365757376,1.84275949,11.91675568
4.510001563,-0.39877823,1.849520683,12.2512455
4.520001563,-0.458930135,1.881622195,12.37800407
4.53,-0.501891673,1.880492091,12.29945374
4.54,-0.426991493,1.856483102,12.00253487
4.55,-0.364100605,1.902193189,11.53081036
4.56,-0.202750564,1.982695818,11.04674244
4.57,0.150394171,2.079191685,10.52186489
4.58,0.548818052,2.210537672,10.04836941
4.590001563,0.837415099,2.326302052,9.773657799
4.6,1.022084713,2.455091,9.695100784
4.61,1.090855718,2.58164835,9.662356377
4.62,1.165248394,2.65703702,9.630915642
4.63,1.29923749,2.706941843,9.584716797
4.64,1.414321899,2.786448479,9.514759064
4.650001563,1.677664995,2.904099464,9.287741661
4.660001563,1.985348582,2.986958027,9.03208828
4.67,2.322710752,3.046937466,8.723054886
4.68,2.607793093,3.073082209,8.441868782
4.69,2.838163137,2.951552629,8.158147812
4.7,2.931508303,2.818262577,8.011611938
4.71,2.902050018,2.671105385,7.954983711
4.720001563,2.7847054,2.380439758,8.184319496
4.730001563,2.444125414,2.157137394,8.472092628
4.74,2.206611156,2.074345827,8.680790901
4.75,2.070017099,2.027256727,8.811303139
4.76,2.001399279,2.103047609,8.887822151
4.77,2.038413763,2.322136164,8.805308342
4.78,2.211753845,2.513834953,8.708678246
4.790001563,2.391778708,2.666039228,8.641880989
4.800001563,2.655562162,2.790125847,8.558322906
4.81,2.782608032,2.856761456,8.621404648
4.82000625,2.664641142,2.916242838,8.667239189
4.83,2.481475115,2.973473787,8.697857857
4.84,2.279768229,3.079115629,8.773035049
4.85,2.062604666,3.138012886,8.864619255
4.860001563,1.915658116,3.276589394,8.881454468
4.870001563,1.899329662,3.293559551,8.810480118
4.88,1.926805615,3.288004875,8.761552811
4.89,2.038691282,3.303394794,8.755021095
4.9,2.118561983,3.389164686,8.705451012
4.91,2.254485607,3.458931684,8.647061348
4.92,2.387440443,3.503243685,8.658315659
4.93,2.37464571,3.53925252,8.685435295
4.940001563,2.368918896,3.656807661,8.747205734
4.950001563,2.379798174,3.789245367,8.647722244
4.96,2.537920713,3.767592192,8.438344002
4.97,2.739129543,3.573863029,8.188697815
4.98,2.814020157,3.46671772,8.094403267
4.99,2.849626541,3.462676287,8.119409561
5.000003125,2.906780958,3.3015275,8.51688385
5.01,2.788411617,3.077497244,9.338372231
5.020001563,2.644462824,2.953420162,10.1843586
5.03,2.485995293,2.88744545,11.13990402
5.04,2.124106884,2.84615016,12.1991663
5.05,1.652343869,2.899799585,12.99431896
5.06,1.481378675,2.97922945,13.44249344
5.07,1.633535028,2.839072943,13.77727985
5.08,1.721019149,2.600352049,14.2060051
5.090001563,1.686303258,2.489433289,14.68655109
5.1,1.611402988,2.323984385,15.59718037
5.11,1.256295085,2.087265015,16.6742363
5.12,0.527586281,1.898908377,17.75574493
5.13,-0.187676668,1.630872726,18.73532867
5.14,-0.75082165,1.263266921,19.5443573
5.150001563,-1.19497478,0.993947983,19.72463989
5.160001563,-1.527222872,0.889426768,19.36331558
5.17,-1.713932276,0.837597072,18.72533798
5.18,-1.880607009,0.947538793,17.78157234
5.19,-2.017737389,1.200423956,16.86953545
5.20000625,-2.206917524,1.508423567,16.08676529
5.21,-2.366984367,1.686600089,15.34448624
5.220001563,-2.482279539,1.783507824,14.56097984
5.230001563,-2.653924704,1.78254056,13.65539551
5.24,-2.884562731,1.787070394,12.72675323
5.25000625,-3.111312866,1.759441257,11.78973866
5.26,-3.304793119,1.711241245,10.74965954
5.27,-3.499930143,1.683037519,9.637859344
5.28,-3.755889416,1.688764453,8.668647766
5.290001563,-4.025610447,1.781755209,7.928561211
5.3,-4.193271637,1.766231298,7.565581322
5.31,-4.153968334,1.562772036,7.117262363
5.32,-3.747653246,1.141153097,6.442815781
5.33,-3.704174757,1.445542336,5.431284428
5.34,-3.380124331,1.807555199,4.921041965
5.350004688,-3.025753736,1.711346626,4.341051579
5.360001563,-2.474110365,1.722934484,4.20204401
5.370001563,-1.823299408,2.05481863,3.913523674
5.38,-1.316475749,2.459994316,3.550668001
5.39,-0.933661997,2.694175959,3.186845064
5.4,-0.572769642,2.757890463,2.833259821
5.41,-0.244658679,2.784063816,2.543159246
5.42,-0.117928796,2.889925718,2.294478416
5.43,-0.107547536,3.057471991,2.120343208
5.44,-0.090807281,3.133205414,1.781467915
5.450004688,-0.079832256,3.2021873,1.592010021
5.46,0.168293223,3.286252499,1.659459472
5.47,0.650600314,3.28856039,1.698877573
5.48,1.195089698,3.240417719,1.787127852
5.49,1.5613451,3.234250307,1.965878963
5.500007813,1.921480894,3.201497555,2.008907557
5.510001563,2.107950926,3.159407616,2.086546659
5.520001563,2.089544296,3.052846432,2.221704245
5.53,2.112298727,2.864212036,2.478812695
5.54,2.200060606,2.560253859,2.891917706
5.55,2.255960464,2.387948036,3.25705266
5.56,2.347562551,2.295895576,3.551108599
5.57,2.626554012,2.186260462,4.037246227
5.58,3.265097141,2.063677311,4.986710072
5.59,3.999532938,1.995346785,5.95353651
5.600003125,4.626746655,1.977256179,6.709970474
5.61,5.224827766,1.876479506,7.702338219
5.62,5.421305656,1.602008224,8.524402618
5.63,5.324723721,1.189525604,9.022683144
5.64,5.078858376,1.063370228,9.670152664
5.65,5.163880825,1.162882924,10.64087582
5.660007813,5.705851555,1.339316368,11.5235424
5.67,6.568271637,1.481531978,11.84241104
5.68,7.697980404,1.574752569,11.90824318
5.69,8.438948631,1.837300777,11.95129967
5.7,8.888319969,2.172249556,11.70190048
5.71,8.974693298,2.45949626,11.1784029
5.72,8.846364021,2.745881081,10.73445034
5.730001563,8.521739006,3.013840199,10.75253201
5.74,8.41314888,3.175668955,11.11951542
5.75,8.550652504,3.243204594,11.55659199
5.76,8.665534973,3.38322711,11.78080463
5.77,8.728779793,3.591197014,11.85167217
5.78,8.702108383,3.821059465,11.82724094
5.790001563,8.56225872,4.072565556,11.62673092
5.800001563,8.317360878,4.372559071,11.26317692
5.81,8.150925636,4.60762167,10.90986061
5.82,8.095820427,4.797836304,10.6685915
5.83,8.320971489,4.963218212,10.49009895
5.84,8.611656189,5.188359261,10.20137691
5.85,8.75305748,5.48358345,9.835906982
5.860001563,8.740962029,5.7840271,9.628157616
5.870001563,8.547472954,6.018582344,9.3712883
5.88,8.220041275,6.118861198,9.088208199
5.89,7.869376659,6.11801815,8.876626968
5.9,7.478844166,6.046996593,8.724204063
5.91,7.075325489,6.014033318,8.652031898
5.92,6.782917023,5.968984127,8.580454826
5.930001563,6.74328804,5.91237545,8.550746918
5.940001563,6.96296072,5.878904343,8.484822273
5.950001563,7.148501873,5.876280308,8.44126606
5.96,7.293226719,5.938989639,8.33272171
5.97,7.233620644,6.002397537,8.094067574
5.98,7.113096237,5.980878353,7.855750084
5.99,7.072538376,5.852309704,7.742685318
6.000001563,7.105214596,5.770341873,7.774403572
6.01,7.353311539,5.857950687,8.048749924
6.02,7.623914719,5.949887753,8.338285446
6.03,7.702194214,6.028321743,8.407143593
6.04,7.580980778,5.999830723,8.320378304
6.05,7.359603405,5.930562019,8.196856499
6.06,7.116754532,5.862576008,8.024731636
6.07,7.053212643,5.644493103,7.743451118
6.080001563,7.482952595,5.386532307,7.552259922
6.090001563,8.22259903,5.561787605,7.450381756
6.1,8.662538528,5.662631512,7.605009079
6.11,8.49968338,5.592251778,7.771195412
6.12,8.177185059,5.545277596,7.975430489
6.13,7.794305325,5.49793911,8.281007767
6.14,7.535969734,5.454182625,8.801726341
6.15,7.521221638,5.365195274,9.252459526
6.16,7.648287773,5.198233128,9.212610245
6.17,8.065394402,4.751427174,9.023220062
6.18,8.453965187,4.290246487,9.130249023
6.19,8.693107605,3.929938316,9.091836929
6.2,8.724078178,3.762056828,8.872940063
6.21,8.397776604,3.634608746,9.005963326
6.220001563,7.856390476,3.428333998,9.633933067
6.230001563,7.114810467,3.251000166,10.37958336
6.24,6.299441338,3.161073923,10.80234051
6.25,5.617821693,3.154293537,10.86478233
6.26,5.207599163,3.068188429,10.39671612
6.27,5.32290411,2.653234959,9.279714584
6.28,5.151153564,1.984094024,8.436592102
6.290001563,4.556376457,1.478898287,7.972451687
6.3,3.206965923,1.598359466,7.057847977
6.31,2.127755642,1.690909624,6.389051437
6.32,1.357378244,1.482470512,6.474275589
6.33,0.813999832,1.198575616,6.918399811
6.34,0.641847134,1.111254334,7.226744175
6.35,0.909834921,0.624991953,7.078179359
6.360001563,1.414044142,-0.214099079,7.240831852
6.370001563,1.771824121,-0.617933869,7.753899574
6.38,1.884696364,-0.190032572,8.219820976
6.39,2.299984932,0.354073673,8.61311245
6.4,2.914116859,0.42036435,9.050714493
6.41,3.177526951,0.051609408,9.961947441
6.42,2.60132885,-0.350453645,10.9759407
6.43,1.601356983,-0.543838084,11.37087822
6.440001563,0.744625449,-0.763616264,11.34989548
6.45,0.007297527,-1.014308333,11.00784016
6.46,-0.541941881,-1.27949965,10.47031307
6.47,-0.93773216,-1.5958215,10.05705452
6.48,-1.409677148,-1.806511283,9.867079735
6.49,-2.138079405,-1.864029646,9.869999886
6.5,-2.800919056,-1.965007424,10.00434399
6.51,-3.556078911,-2.16375494,10.140728
6.52,-4.320212364,-2.42997098,10.08715534
6.53,-4.924039364,-2.835998774,9.906756401
6.54,-5.150330067,-3.209848642,9.813008308
6.55,-5.130276203,-3.343272686,9.767585754
6.56,-4.91339016,-3.201085806,9.870019913
6.57,-4.450878143,-2.925446272,10.12293339
6.58,-3.815773249,-2.700649738,10.41958618
6.590001563,-3.177345037,-2.567417383,10.49604607
6.6,-2.500236034,-2.429492235,10.33332634
6.61,-1.810983658,-2.271513224,10.10356903
6.62,-1.174739003,-2.000882149,9.844296455
6.63,-0.758645892,-1.488072872,9.91722393
6.64,-0.381013244,-0.854337335,10.09138775
6.650001563,0.202702686,-0.291106194,10.39002132
6.660001563,1.144179344,-0.112527475,10.60414982
6.67,2.209445953,-0.163830429,10.60950375
6.68,3.387938976,-0.220055863,10.45803642
6.69,4.360271931,-0.163552701,10.15564728
6.7,4.919030666,0.13463074,9.771465302
6.71,5.237804413,0.718547761,9.465237617
6.720001563,5.25020647,1.384183764,9.348227501
6.730001563,5.254123211,1.914183378,9.38860321
6.74,5.61008358,1.936382413,9.49047184
6.75,6.308117867,1.688572884,9.428969383
6.76,6.989536285,1.56088531,9.279226303
6.77,7.339434624,1.707946777,8.939537048
6.78,7.318719864,2.099149704,8.568407059
6.790001563,7.23111248,2.635125399,8.176773071
6.800001563,7.348524094,2.998220444,7.858727455
6.81,7.49827528,3.094706774,7.616042614
6.820004688,7.731365204,3.043892145,7.430289745
6.83,8.149537086,2.928194761,7.068909168
6.84,8.67894268,2.764833689,6.672592163
6.85,9.188649178,2.673748493,6.514201164
6.860001563,9.662510872,2.859481096,6.285497665
6.870003125,10.16493797,3.209216595,6.180487633
6.88,10.51501751,3.644013166,6.062989712
6.89,10.86826706,4.122135162,5.791583061
6.9,11.39874554,4.530844688,5.428336143
6.91,11.79350185,4.849235058,5.211870193
6.920001563,12.08576775,4.970611572,5.166945457
6.93,12.23408318,5.015009403,5.181071281
6.940001563,12.07861328,5.166754246,5.26497364
6.950001563,11.86723328,5.256699562,5.445678711
6.96,11.87812328,5.286473751,5.691658974
6.97,12.09114933,5.357667923,5.93694973
6.98,12.35062408,5.463807583,6.099985123
6.99,12.650177,5.606502056,6.032009125
7,12.82594967,5.579390049,5.564325809
7.010001563,12.87150574,5.280440331,5.038472652
7.020007813,12.63632774,4.916339874,4.677350521
7.03,12.09846592,4.56014967,4.237717628
7.04,11.47066784,4.230966091,3.797998667
7.05,10.79852962,3.931872845,3.462657213
7.06,10.15324402,3.715896606,3.402792454
7.070003125,9.611790657,3.52019453,3.707220078
7.080001563,9.163042068,3.30903554,4.210691929
7.090001563,8.870067596,2.989103317,4.873090744
7.1,8.782927513,2.685096979,5.547958851
7.11,8.80337429,2.453233004,6.072748661
7.12,8.801104546,2.261294603,6.387567043
7.13,8.565898895,2.094313383,6.618340492
7.14,8.151021957,1.947137117,6.781049252
7.15,7.734698296,1.845354795,6.802376747
7.160001563,7.289261818,1.731764317,6.672112942
7.17000625,7.003068447,1.57537508,6.474016666
7.18,6.843222141,1.479645371,6.439980984
7.19,6.713111401,1.317778111,6.607000351
7.2,6.476133347,1.118072987,6.909713745
7.21,6.112952232,1.080187201,7.092075348
7.220009375,5.712919235,1.101026297,7.265520573
7.230001563,5.331398487,1.051657796,7.488995552
7.24,5.098806858,0.904931605,7.442903519
7.25,4.939697742,0.714247823,7.335354805
7.26,4.788594723,0.552198648,7.510706425
7.270003125,4.526314735,0.48683694,7.715841293
7.28,4.248300076,0.445436418,7.910452843
7.290001563,4.042666912,0.330074221,7.985562325
7.300001563,3.867966652,0.346096218,8.257142067
7.31,3.673117161,0.199887097,8.883896828
7.32,3.320010662,-0.143527597,9.823468208
7.33,2.766748905,-0.376397222,11.02456188
7.34,2.21223259,-0.36066252,11.86805725
7.35,1.879496098,-0.20327729,12.51340008
7.360001563,1.773796916,0.026949134,13.10371399
7.370001563,1.886937261,0.380342871,13.26237488
7.38,2.079507828,0.735019863,12.95244884
7.39,2.210719585,1.006263733,12.75633526
7.4,2.138778687,1.173206687,12.48717022
7.41,1.86266017,1.278254628,12.10365677
7.42,1.450771213,1.415413737,11.94117641
7.43,0.839665651,1.744032264,12.08926201
7.440001563,0.266426742,2.150701761,12.37664318
7.45,-0.036535516,2.405483007,12.83196449
7.46,-0.242302775,2.348587275,13.11868382
7.47,-0.332506716,2.238204956,13.10002708
7.48,-0.502016187,2.197628021,12.91036987
7.49,-0.743198514,2.301182032,12.50636101
7.5,-0.922323048,2.449469328,11.98795033
7.510001563,-1.056743145,2.474110365,11.33211136
7.52,-1.176740527,2.465213537,10.80708218
7.53,-1.298184037,2.621803999,10.41557217
7.54,-1.357847452,2.957269907,10.19538307
7.55,-1.253603935,3.259676695,10.19313145
7.56,-1.038719535,3.451356411,10.2058115
7.57,-0.840824425,3.608674765,10.09889603
7.580001563,-0.586167574,3.769450188,9.859247208
7.590001563,-0.353700191,3.89320159,9.597300529
7.6,-0.422346741,4.089497566,9.517190933
7.61,-0.420287728,4.374943733,9.472486496
7.62,-0.313190311,4.626852036,9.434350967
7.63,-0.237227067,4.752595425,9.324573517
7.64,-0.087752275,4.826614857,9.111095428
7.650001563,-0.062191781,4.849560738,8.911304474
7.660001563,-0.209281951,4.884631157,8.694974899
7.67,-0.307913482,4.859788895,8.498084068
7.68,-0.360346496,4.754482269,8.335969925
7.69,-0.343031615,4.54400301,8.302458763
7.7,-0.333416522,4.42343092,8.500077248
7.71,-0.521629512,4.50574398,8.828810692
7.720001563,-0.659296095,4.616183281,9.099058151
7.730001563,-0.506105483,4.680788517,9.429294586
7.74,-0.216589049,4.733202457,9.682294846
7.75,0.128683552,4.767324448,9.728839874
7.76,0.472117394,4.817459106,9.677812576
7.77,0.737739682,4.876825809,9.399252892
7.78,0.795392096,4.895835876,9.127855301
7.790001563,0.585755765,4.864481449,9.052323341
7.800001563,0.333512276,4.73588419,8.9811306
7.81,0.177304998,4.505763054,8.893434525
7.82,0.154042929,4.196661949,8.896287918
7.83,0.177994519,3.909482241,9.056853294
7.84,0.20318152,3.700363159,9.349778175
7.85,0.399860412,3.535057783,9.736413002
7.860001563,0.782980561,3.387335539,10.04353237
7.870001563,1.223360419,3.243989944,10.2748785
7.880001563,1.669553399,3.152205944,10.37156677
7.89,1.938546777,3.059895039,10.2953167
7.9,2.050509214,3.030407906,9.988015175
7.91,2.092828989,2.962125301,9.60931015
7.92,2.295627594,2.850938559,9.352202415
7.930001563,2.623116016,2.791983843,9.26485157
7.940001563,3.101611614,2.734072924,9.388487816
7.950001563,3.616202116,2.757287025,9.752771378
7.96,4.018399239,2.840337038,10.00672817
7.97,4.236214161,2.914969206,10.15784073
7.98,4.382135868,2.809289217,10.25078392
7.99,4.520415306,2.730472088,10.41473961
8,4.548647881,2.847797394,10.73629951
8.01,4.613549709,2.992321014,11.08894539
8.020001563,4.745336533,3.152493238,11.53171062
8.03,5.043999672,3.233781099,11.82811356
8.04,5.511298656,3.323046446,11.86467648
8.05,6.001995087,3.468125582,11.62899113
8.06,6.431371212,3.601980448,11.11125183
8.07,6.62864399,3.794043303,10.53679466
8.080001563,6.771865368,4.079518318,9.956987381
8.090001563,6.925869942,4.41187191,9.305782318
8.1,7.161795616,4.601214886,8.909570694
8.11,7.51585865,4.79852581,8.675293922
8.12,7.963842392,5.025381088,8.317111969
8.13,8.219323158,5.241204262,7.970028877
8.14,8.236187935,5.346539497,7.748929024
8.150001563,8.239625931,5.318230629,7.571587086
8.16,8.170749664,5.25505209,7.566242218
8.17,7.941288948,5.197744846,7.6940732
8.18,7.695720673,5.077641964,7.62482357
8.19,7.500171661,4.896286011,7.397814751
8.2,7.49302721,4.793345928,7.240919113
8.21,7.507871628,4.7116642,7.093827724
8.220001563,7.609586716,4.552967072,6.815669537
8.23,7.636928558,4.392086029,6.74886179
8.24,7.457746506,4.299335003,7.05471611
8.25,7.035725117,4.218851566,7.971331596
8.26,6.728999138,3.994696617,8.86137104
8.27,6.668186665,3.686313868,8.987709045
8.28,6.536879063,3.483362198,8.841930389
8.290001563,6.29652977,3.314973116,8.623521805
8.300001563,6.01990366,3.152866602,8.252018929
8.31,5.690845013,3.042599201,7.946086884
8.32,5.292928696,2.969729424,7.907061577
8.33,4.783308506,2.906733036,8.201243401
8.34,4.24875021,2.825129271,8.710134506
8.35,3.76917243,2.682817698,8.997237206
8.360001563,3.356249332,2.552228451,8.838137627
8.370001563,2.841917276,2.548062563,8.518062592
8.380001563,2.165363789,2.591847658,8.099508286
8.390004688,1.44359827,2.66358757,7.723407269
8.4,0.833095968,2.617264509,7.574286461
8.41,0.337582439,2.335783005,7.837150574
8.42,0.088556729,1.832119703,8.121419907
8.43,0.054664411,1.216005445,8.439014435
8.440004688,0.049952623,0.738601625,8.663887978
8.45,-0.083327793,0.175064027,8.7980299
8.46,-0.351056993,-0.38140589,8.838377953
8.47,-0.434107065,-0.749471307,8.773762703
8.480001563,-0.511727095,-1.072477818,9.012751579
8.49000625,-0.730308115,-1.442391515,9.421125412
8.5,-1.011397004,-1.903064609,9.983351707
8.510001563,-1.312625766,-2.393291712,10.84104061
8.520001563,-1.592163205,-2.733335495,11.41304493
8.53,-1.735958934,-2.933634281,11.61783409
8.540004688,-1.82652688,-3.112375975,11.63947773
8.55,-1.968732834,-3.167490482,11.38112545
8.56,-1.999838233,-3.113611221,10.8839159
8.57,-1.952097893,-3.052683592,10.28794193
8.580001563,-1.872323155,-3.036240339,9.664990425
8.590007813,-1.800506592,-3.037964106,9.149939537
8.6,-1.655437231,-3.083990335,8.837812424
8.61,-1.442353249,-3.110450983,8.677476883
8.62,-1.31693542,-3.018111467,8.677343369
8.63,-1.252081275,-2.751904964,8.760019302
8.64000625,-1.136163592,-2.498991013,8.901633263
8.650001563,-0.830184639,-2.417463779,9.073345184
8.660001563,-0.446623951,-2.355118752,9.217475891
8.67,0.109616123,-2.149399281,9.375320435
8.68,0.681916475,-1.815283656,9.56359005
8.69,1.199791908,-1.539710999,9.827307701
8.7,1.735556722,-1.345752001,10.01084805
8.71,2.116790295,-0.983911514,10.15792656
8.720001563,2.345934391,-0.44719854,10.34854412
8.730001563,2.690278053,-0.062785544,10.49513626
8.740004688,3.092015505,0.091276541,10.56429958
8.75,3.499278784,0.300357372,10.71198463
8.76,3.961896181,0.584884286,10.75291443
8.77,4.317569256,1.061799645,10.8038063
8.779998438,4.56578064,1.623843312,10.99991131
8.790004688,4.990320683,2.1769135,11.38628674
8.8,5.424868107,2.485095024,11.51293182
8.81,5.817009449,2.67253232,11.31518841
8.82,6.184347153,2.952299595,11.10142517
8.83,6.337901592,3.318593264,10.91583633
8.84,6.442173958,3.601223946,10.72581291
8.85,6.899198532,3.799492598,10.59982014
8.860001563,7.275107384,4.139028549,10.65676403
8.870001563,7.545632839,4.529781342,10.61087322
8.88,7.706226349,4.869566441,10.50375462
8.89,7.862759113,5.101804256,10.50225163
8.9,7.839334488,5.306460381,10.37704468
8.91,7.685051918,5.450457573,10.0330267
8.92,7.595834255,5.562017441,9.770440102
8.93,7.622448444,5.69095993,9.638959885
8.940009375,7.751524448,5.707709789,9.459443092
8.950001563,7.955692291,5.862576008,9.201195717
8.96,7.85708952,6.112760544,8.948568344
8.97,7.381697178,6.3091712,8.637015343
8.98,6.723799229,6.366900444,8.376651764
8.990003125,6.072777271,6.254947662,8.260320663
9,5.516862869,6.05151701,8.096050262
9.010001563,4.941086292,5.896640778,8.040504456
9.020001563,4.444624424,5.77173996,8.195074081
9.03,4.134326458,5.636189938,8.297823906
9.040001563,4.100156307,5.499490738,8.319439888
9.05,4.224185467,5.461509228,8.276994705
9.06,4.177125454,5.61182642,8.178334236
9.07,3.975341797,5.755430698,8.150417328
9.08,3.620320082,5.698132992,8.174685478
9.090004688,3.241279602,5.454690456,8.242950439
9.1,2.847816706,5.195637703,8.406252861
9.11,2.564898491,4.908697605,8.470474243
9.12,2.183645964,4.6463027,8.571069717
9.13,1.833211422,4.472454548,8.585712433
9.14,1.545083642,4.293962479,8.481765747
9.150001563,1.304897308,4.120123863,8.368251801
9.16,1.155594945,4.018801689,8.234013557
9.17,1.139726162,3.881728649,8.132949829
9.18,1.096917868,3.702613592,8.124043465
9.19,1.065889001,3.55173111,8.195141792
9.2,1.022122979,3.377797127,8.154813766
9.21,0.896887064,3.147091866,8.162139893
9.220001563,0.671008527,3.050950289,8.069618225
9.230001563,0.392208517,3.0962677,8.055617332
9.24,0.055344366,3.289958715,8.022788048
9.25,-0.151246503,3.459870338,8.028899193
9.260001563,-0.073856331,3.482002258,8.150170326
9.27,0.113935269,3.416295767,8.264084816
9.28,0.291067868,3.323582888,8.339138985
9.290001563,0.31593883,3.198720455,8.440106392
9.300001563,0.288118213,3.121109962,8.466874123
9.31,0.297302365,3.03670001,8.386265755
9.32,0.404543459,2.921404839,8.398476601
9.33,0.433704823,3.013658285,8.513954163
9.34,0.580871642,3.237822533,8.617738724
9.35,0.882818758,3.432719946,8.627707481
9.360001563,1.132179618,3.512705564,8.511817932
9.370001563,1.328418016,3.595027685,8.373758316
9.380001563,1.57116127,3.650372028,8.178793907
9.39,1.861644983,3.596924067,8.025747299
9.4,1.996888638,3.538342714,7.94500494
9.41,1.969393611,3.559622288,7.996470451
9.42,1.856253266,3.555092573,8.145198822
9.429998438,1.744511008,3.499575853,8.418424606
9.440001563,1.671708226,3.468173504,8.633529663
9.45,1.574455738,3.414974213,8.788244247
9.46,1.463872313,3.35859561,8.944842339
9.47,1.295943022,3.275344372,9.060521126
9.48,1.185369253,3.212424755,9.232233047
9.49,1.169605732,3.093528748,9.402088165
9.5,1.184430718,3.059751272,9.665095329
9.510001563,1.168504477,3.015391588,9.950464249
9.520001563,1.126079202,3.041957617,10.06352806
9.53,1.186144948,3.025121689,10.08234787
9.54,1.301028252,2.98292613,10.00543594
9.55,1.386980176,2.972928047,9.838913918
9.56,1.402130604,3.027745724,9.699983597
9.57,1.414494276,3.024499178,9.498908997
9.580001563,1.422519684,3.036690474,9.37803936
9.590001563,1.493072033,3.072095871,9.345258713
9.6,1.653799534,3.08819437,9.391505241
9.61,1.762793183,3.09428525,9.4177742
9.62,2.050959349,3.158986092,9.427178383
9.63,2.282852173,3.186385393,9.518445015
9.64,2.375708818,3.242400169,9.496496201
9.650001563,2.484846115,3.305501699,9.34782505
9.660001563,2.541741848,3.328466892,9.185375214
9.67,2.557533979,3.337057352,9.00508976
9.68,2.631304264,3.329577923,8.797350883
9.69,2.726104975,3.257234573,8.593479156
9.7,2.882216454,3.114051819,8.526460648
9.71,2.949819088,3.021961212,8.53791523
9.720001563,3.079517841,3.007749319,8.59594059
9.730001563,3.175218821,2.985684395,8.656522751
9.74,3.210777521,2.947951794,8.677994728
9.75,3.162567854,2.915687323,8.676232338
9.76,3.021970749,2.901935101,8.783799171
9.77,2.794311047,2.861022949,8.953960419
9.78,2.49119544,2.814115763,9.110503197
9.790001563,2.180217505,2.673834801,9.228392601
9.800001563,1.73107481,2.494145155,9.346302986
9.81,1.265603662,2.338196516,9.3758564
9.82,0.909901977,2.208382845,9.358504295
9.83,0.558567226,2.09559679,9.365667343
9.84,0.365182787,1.979516268,9.458802223
9.85,0.153248057,1.91260314,9.729595184
9.860001563,-0.032264262,1.888220668,9.926570892
9.870001563,-0.12617442,1.804662943,10.16440105
9.880001563,-0.198163271,1.784819841,10.35292053
9.89,-0.220352739,1.800152302,10.45302773
9.9,-0.200672403,1.831324816,10.45465565
9.91,-0.18642211,1.841198444,10.45925331
9.92,-0.117133915,1.807277441,10.49887085
9.929998438,-0.169729739,1.852374673,10.34382343
9.940001563,-0.165697902,1.889369845,10.22591305
9.950001563,-0.132447228,1.922132134,10.04631901
9.96,-0.039552212,1.989035606,9.895915985
9.97,0.149618447,2.061541557,9.794967651
9.98,0.26803565,2.181337833,9.819444656
9.99,0.35628593,2.330592394,9.743597031
10,0.469043255,2.458059788,9.619988441
10.01000156,0.723441541,2.544136047,9.463234901
10.02000156,0.903226912,2.554680109,9.307239532
10.03,0.981086373,2.549805641,9.182826042
10.04,1.00287354,2.605485201,9.023832321
10.05,1.073320627,2.60437417,8.970421791
10.06,1.187725067,2.631581783,9.061459541
10.07,1.333110571,2.714813948,9.140162468
10.08000156,1.528563619,2.787760496,9.143264771
10.09000156,1.760159612,2.843976259,9.185738564
10.1,2.032428265,2.879400969,9.13544178
10.11,2.23139596,2.888268948,9.065626144
10.12,2.326062679,2.881565332,9.032115936
10.13,2.345934391,2.841917276,9.058098793
10.14,2.348951101,2.822610378,9.102294922
10.15000156,2.373353004,2.781095028,9.161203384
10.16,2.419417381,2.734015465,9.160963058
10.17,2.471036434,2.761117697,9.149040222
10.18,2.559957027,2.80577445,9.140343666
10.19,2.652449846,2.827791452,9.138906479
10.2,2.719362974,2.846064091,9.116506577
10.21,2.769315481,2.858552217,9.059756279
10.22000156,2.822955132,2.778193235,9.003060341
10.23000156,2.773002625,2.715292692,9.041472435
10.24,2.63224268,2.688439369,9.098818779
10.25,2.517033815,2.634895563,9.098674774
10.26,2.464121819,2.597689629,9.129387856
10.27,2.412129402,2.588371277,9.197650909
10.28,2.339690447,2.608319759,9.245975494
10.29000156,2.235494852,2.639109373,9.222043991
10.3,2.103162527,2.664411306,9.134952545
10.31000156,2.032571793,2.615310907,9.051462173
10.32,1.91882813,2.606030941,9.05953598
10.33,1.793994427,2.638726234,9.042899132
10.34,1.711183786,2.640651226,9.078602791
10.35,1.633046627,2.620396137,9.176984787
10.36000156,1.54503572,2.581236601,9.280720711
10.37000156,1.460472584,2.592106342,9.405420303
10.38000156,1.357272863,2.583640337,9.430070877
10.39,1.303853512,2.53909874,9.436075211
10.4,1.320114851,2.514218092,9.41981411
10.41,1.310672164,2.512245417,9.462076187
10.42,1.298116922,2.514840603,9.479162216
10.42999844,1.295828104,2.465270996,9.510766029
10.44000156,1.325611949,2.394967794,9.559023857
10.45,1.280064702,2.368257999,9.54983902
10.46,1.195386529,2.321973324,9.431996346
10.47,1.250836253,2.270517111,9.491726875
10.48000156,1.267844677,2.282248735,9.593632698
10.49,1.241623402,2.365662813,9.625362396
10.5,1.236959457,2.425182581,9.617804527
10.51000156,1.279346466,2.466104269,9.660248756
10.52000156,1.406286955,2.498646259,9.611907005
10.53,1.570376039,2.477155924,9.500595093
10.54,1.664171219,2.477069616,9.365484238
10.55,1.709536552,2.480134249,9.17870903
10.56,1.702258229,2.558079958,9.188994408
10.57,1.672014594,2.588313818,9.130335808
10.58000156,1.675969839,1.909375787,9.329015732
10.59000156,1.812094569,2.146794319,9.044920921
10.6,1.927083254,2.65567708,9.115712166
10.61,1.775664449,2.907949448,9.132328033
10.62,1.827963352,2.822409391,9.07918644
10.63,1.976221919,2.570807457,9.095428467
10.64,2.058572769,2.376896381,9.115864754
10.65000156,2.419130087,2.337085485,9.1593256
10.66000156,2.022841692,2.358259916,8.97555542
10.67,2.049407959,2.448071241,8.596974373
10.68,2.242935896,2.563912153,8.6388731
10.69,2.410893917,2.697154284,8.846700668
10.7,2.263554811,2.717026234,9.00086689
10.71,1.953419566,2.696675539,9.117598534
10.72000156,1.509036541,2.78674531,9.138207436
10.73000156,1.059434175,3.106725693,9.196071625
10.74,0.789052248,3.579944372,9.218127251
10.75,0.711796165,3.882399082,8.981072426
10.76,0.794951558,3.922841787,8.863965988
10.77,0.813090026,3.777504206,9.067885399
10.78,0.733114123,3.645277262,9.183851242
10.79000156,0.593225718,3.602995634,9.117933273
10.80000156,0.513450921,3.677148819,9.047534943
10.81000156,0.522462666,3.748601437,9.024981499
10.82,0.62228173,3.768425465,8.953769684
10.83,0.667072475,3.776680708,8.968238831
10.84,0.648866951,3.787962198,9.026697159
10.85,0.58922261,3.757574797,8.965595245
10.86000156,0.465528548,3.779390812,8.874300003
10.87000156,0.455683589,3.757105589,8.780266762
10.88,0.454237491,3.684245348,8.733588219
10.89,0.457436144,3.562955141,8.805644035
10.9,0.385763347,3.478296041,8.900549889
10.91,0.157078773,3.493130445,8.928935051
10.92,-0.123847261,3.576975584,9.008508682
10.92999844,-0.279518247,3.592834711,9.098666191
10.94000156,-0.272891104,3.54460597,9.080535889
10.95000156,-0.233434662,3.473794937,8.915365219
10.96,-0.15741396,3.459276438,8.830533981
10.97,-0.062143896,3.433438301,8.839123726
10.98,0.021796811,3.360290766,8.926704407
10.99,-0.027686547,3.346710682,9.025891304
11,-0.17424041,3.400810242,9.097688675
11.01000156,-0.421657205,3.441004038,9.234636307
11.02,-0.578534901,3.444921017,9.227406502
11.03,-0.685076833,3.450992584,9.187404633
11.04,-0.691847622,3.434424639,9.089576721
11.05,-0.612570822,3.381627798,9.01848793
11.06,-0.494718671,3.314130545,9.010042191
11.07,-0.417290181,3.185695887,9.135507584
11.08000156,-0.40587464,3.105806112,9.333133698
11.09000156,-0.580785453,3.208957911,9.328211784
11.10000156,-1.438589573,3.775339842,8.185181618
11.11,-1.608520389,3.766845226,8.844756126
11.12,-1.111608624,3.363431931,9.171391487
11.13,-0.859221518,3.089870453,9.666866302
11.14000313,-0.887990236,3.109732628,10.17999172
11.15000156,-1.00118804,3.276780844,10.5558815
11.16000156,-1.363038182,3.366477251,10.91129684
11.17,-1.638189316,3.360290766,10.27336597
11.18,-1.626304507,3.559890509,9.618686676
11.19000313,-1.438340545,3.689091206,9.01559639
