Time (s),Gyroscope x (rad/s),Gyroscope y (rad/s),Gyroscope z (rad/s)
0.213483125,-0.26829201,-1.092157245,-0.739391267
0.223483125,-0.23528783,-1.142195821,-0.754296422
0.233483125,-0.186313897,-0.718464792,-0.64250803
0.243483125,-0.267227352,-0.879227042,-0.46364671
0.253484688,-0.297037572,-1.165618181,-0.282656074
0.263484688,-0.259774804,-1.146471858,-0.214518413
0.273483125,-0.211289555,-1.083622575,-0.237486944
0.283484688,-0.135350287,-1.03230989,-0.316026777
0.293483125,-0.037699111,-1.057704449,-0.394147694
0.303483125,0.098925263,-1.075663924,-0.456229061
0.313483125,0.275849283,-0.987769067,-0.516809464
0.323484688,0.477312654,-0.885754585,-0.566498995
0.33348625,0.679980278,-0.808017612,-0.601929128
0.343483125,0.83786273,-0.686403096,-0.633868694
0.353483125,0.919980526,-0.486021847,-0.653782904
0.363483125,0.930557191,-0.336691469,-0.636085272
0.373483125,0.894254327,-0.287385911,-0.589292943
0.383483125,0.823411405,-0.377113283,-0.522254884
0.393484688,0.742497981,-0.582032382,-0.449265212
0.403484688,0.673889101,-0.856415629,-0.375909001
0.413483125,0.635439456,-1.047878265,-0.327301592
0.423483125,0.63533473,-1.074948311,-0.305083543
0.433483125,0.652107358,-1.032990575,-0.312379032
0.443483125,0.684500694,-0.908967495,-0.329203993
0.453483125,0.723229527,-0.721292198,-0.336132973
0.463484688,0.741346061,-0.590759039,-0.330774784
0.473484688,0.741119146,-0.511416376,-0.304053813
0.483483125,0.71338588,-0.480349511,-0.259809703
0.493483125,0.639383912,-0.508117676,-0.231343389
0.503483125,0.554368913,-0.577127993,-0.215530708
0.513483125,0.493806005,-0.64193207,-0.21584487
0.523483125,0.477225363,-0.612401128,-0.230453268
0.533484688,0.508571506,-0.50904274,-0.25576055
0.543484688,0.55909878,-0.41301471,-0.278624356
0.553484688,0.607880712,-0.312448829,-0.287996769
0.563483125,0.621738613,-0.235933602,-0.300318807
0.573483125,0.595558703,-0.198199585,-0.321559459
0.583483125,0.557911932,-0.168546438,-0.355506122
0.593483125,0.520963311,-0.148283169,-0.39742893
0.603483125,0.484887362,-0.179716557,-0.438845575
0.613484688,0.461115986,-0.23916246,-0.472617716
0.623484688,0.434813887,-0.394863278,-0.510683358
0.633483125,0.398807734,-0.657151341,-0.58948493
0.643483125,0.365140319,-0.859190702,-0.737488866
0.653483125,0.341787815,-0.863693655,-0.9557423
0.663483125,0.32676053,-0.720140278,-1.204416752
0.673483125,0.301296175,-0.477434814,-1.418586135
0.683484688,0.232076436,-0.310982764,-1.577864885
0.693484688,0.085887656,-0.380970478,-1.665078998
0.703483125,-0.106116019,-0.786968946,-1.631411552
0.713483125,-0.265970737,-1.309293628,-1.469445109
0.723483125,-0.260769635,-1.819697738,-1.290478945
0.733483125,-0.053843409,-2.109352589,-1.225814581
0.743483125,0.186348811,-2.312142372,-1.159230232
0.753484688,0.332363039,-2.206183434,-1.174432039
0.763484688,0.294978082,-1.843643665,-1.237874746
0.773483125,0.142436326,-1.267789721,-1.25759697
0.783483125,-0.070301861,-0.531819284,-1.193368912
0.793483125,-0.273789793,0.238551602,-1.037650585
0.803483125,-0.391512245,0.817267895,-0.850551307
0.813483125,-0.433173269,1.239462972,-0.679543912
0.823484688,-0.394793481,1.530583978,-0.52689743
0.833484688,-0.289742112,1.619211793,-0.36180675
0.843483125,-0.147794485,1.490441322,-0.158022106
0.853483125,0.034644786,1.217995524,0.095155351
0.863483125,0.267332077,0.77164495,0.519811392
0.873483125,0.534873605,0.535205185,0.897448301
0.883481563,0.781855166,0.329448342,1.10294342
0.893484688,1.001819015,0.150866255,1.219094992
0.903484688,1.19171083,0.135088488,1.347114921
0.913483125,1.340028882,0.209387153,1.503985167
0.923483125,1.431623816,0.275133699,1.68607533
0.933483125,1.47398293,0.329745054,1.895567179
0.943483125,1.482325554,0.401163936,2.145655394
0.953483125,1.454697013,0.489495039,2.413074732
0.963484688,1.389404297,0.508798361,2.674996376
0.973484688,1.299257994,0.360305756,2.916026354
0.983484688,1.228589654,0.108105697,3.104172707
0.993483125,1.206720591,-0.228673041,3.281986952
1.003483125,1.251191616,-0.579885662,3.464810133
1.013483125,1.357866168,-0.822678387,3.639796972
1.023483125,1.495328307,-0.855228782,3.731199741
1.033484688,1.651744723,-0.716178417,3.704827785
1.043484688,1.796921134,-0.418076158,3.564991951
1.05348625,1.917750359,-0.047054075,3.377351761
1.063483125,1.96529305,0.329134196,3.227654934
1.073483125,1.904433489,0.648494542,3.15131402
1.083483125,1.742781043,0.837566078,3.162484169
1.093483125,1.543848395,0.937625766,3.234391689
1.103483125,1.324163795,1.001452446,3.287118196
1.113484688,1.107777953,1.035678387,3.277850389
1.123484688,0.92490232,1.017212749,3.231075764
1.133483125,0.75354588,0.893207133,3.194301605
1.143483125,0.577372372,0.723945141,3.148032904
1.15348625,0.438479066,0.511608362,3.040450811
1.163483125,0.369346589,0.273336023,2.894785643
1.173483125,0.377584517,0.090338245,2.758108854
1.183484688,0.456455946,-0.027715828,2.674542427
1.193484688,0.58709383,-0.05597271,2.595060349
1.203487813,0.727592885,0.002775074,2.494738817
1.213483125,0.836518884,0.052656583,2.367486715
1.223483125,0.889891028,0.011728613,2.200737953
1.233483125,0.882298827,-0.110025555,1.993724465
1.243483125,0.823673248,-0.238307253,1.77538383
1.25348625,0.720995486,-0.360916644,1.536587834
1.263484688,0.57913518,-0.444552809,1.286551952
1.273483125,0.407813638,-0.480052799,1.036603451
1.283483125,0.214082092,-0.468149662,0.778172493
1.293483125,-0.002844887,-0.406487167,0.513406038
1.303483125,-0.234205738,-0.315485716,0.23757422
1.313483125,-0.464275032,-0.239319548,-0.046617743
1.323484688,-0.677746236,-0.20729275,-0.330949336
1.333483125,-0.850376785,-0.250611812,-0.587512732
1.343483125,-0.952810168,-0.360288322,-0.809361517
1.353483125,-0.986425161,-0.469825178,-0.994610786
1.363483125,-0.987838924,-0.552274525,-1.150119662
1.373483125,-0.994663119,-0.62931335,-1.298315525
1.383483125,-1.031000853,-0.729338169,-1.451503038
1.393484688,-1.089678884,-0.867131948,-1.58947134
1.40348625,-1.148758292,-1.031716466,-1.680437922
1.413483125,-1.172843814,-1.213876486,-1.706740022
1.423483125,-1.145529389,-1.415741324,-1.674067497
1.433483125,-1.069118857,-1.595004082,-1.598931074
1.443483125,-1.003843546,-1.660628438,-1.514980674
1.453483125,-0.98885119,-1.646561027,-1.44508028
1.463484688,-1.03276372,-1.638707042,-1.398794174
1.473483125,-1.111320972,-1.611636996,-1.362787962
1.483483125,-1.186422467,-1.549084425,-1.31425035
1.493483125,-1.225500345,-1.477298975,-1.226215959
1.503487813,-1.212096214,-1.430436969,-1.10636425
1.513483125,-1.149246931,-1.432705879,-0.968186498
1.523483125,-1.04187429,-1.479218841,-0.825977087
1.533484688,-0.932058156,-1.561476231,-0.715026498
1.543484688,-0.845088422,-1.656771183,-0.641687751
1.55348625,-0.78632319,-1.701678514,-0.583149433
1.563483125,-0.750090122,-1.6659168,-0.515884399
1.573483125,-0.737541258,-1.565001845,-0.424935311
1.583483125,-0.759968698,-1.454225779,-0.337983012
1.593483125,-0.813550293,-1.348615885,-0.260176241
1.603483125,-0.893381655,-1.245868325,-0.189193696
1.613484688,-0.98975879,-1.152755022,-0.14655529
1.623484688,-1.097236156,-1.054527879,-0.138614044
1.633483125,-1.196300983,-0.938184261,-0.157254159
1.643483125,-1.274910688,-0.798470676,-0.179472208
1.653483125,-1.330132842,-0.625700533,-0.168528989
1.663483125,-1.345718622,-0.406399906,-0.07878416
1.673483125,-1.320620775,-0.162455246,0.096621424
1.683484688,-1.242831469,0.051015973,0.31710887
1.693483125,-1.159457088,0.241029963,0.508763492
1.703483125,-1.120850444,0.421444654,0.644829333
1.713483125,-1.13596499,0.580391765,0.72476542
1.723483125,-1.22061348,0.731205702,0.753720462
1.733483125,-1.346346974,0.877254844,0.748327374
1.743483125,-1.449844956,1.031053305,0.757734716
1.753484688,-1.464523196,1.10966289,0.826849759
1.763484688,-1.355230689,1.12310195,0.953612983
1.773483125,-1.142963767,1.142422676,1.113816738
1.783483125,-0.930557191,1.117813587,1.261611223
1.793483125,-0.762429655,1.102681518,1.401412129
1.803483125,-0.642734945,1.151341319,1.507528186
1.813483125,-0.582590878,1.245868325,1.540933728
1.823484688,-0.573724627,1.395896912,1.51541698
1.833484688,-0.607130229,1.57796967,1.44804728
1.843483125,-0.655929625,1.721051693,1.378111959
1.853483125,-0.678304732,1.832264066,1.357237816
1.863483125,-0.634898424,1.934575319,1.372544408
1.873483125,-0.526949823,2.02421546,1.393819928
1.883481563,-0.393152863,2.152584314,1.406037211
1.893484688,-0.294192702,2.385184288,1.388479233
1.903484688,-0.303861827,2.694613934,1.352281094
1.913483125,-0.394933105,2.892621517,1.356818914
1.923483125,-0.451586485,2.935189962,1.41893518
1.933483125,-0.392629266,2.869321346,1.495432973
1.943483125,-0.19922933,2.702049017,1.550690174
1.953483125,0.062290803,2.519923925,1.568108559
1.963484688,0.30049333,2.429254055,1.550184011
1.973484688,0.425005138,2.459308624,1.499743938
1.983484688,0.403520107,2.544253826,1.423246145
1.993483125,0.268780708,2.600523233,1.332838178
2.003483125,0.114528507,2.587520361,1.244384885
2.013483125,0.02677335,2.458592892,1.180523276
2.023483125,0.034016468,2.237023354,1.131095529
2.033484688,0.112905346,1.998262405,1.090307236
2.043484688,0.234781697,1.795228243,1.053620338
2.053484688,0.339588702,1.671711206,1.001400113
2.063483125,0.383605927,1.597918749,0.927502871
2.073483125,0.368892789,1.530915499,0.830898881
2.083483125,0.327441216,1.43815124,0.730298102
2.093483125,0.277629524,1.295156479,0.638581038
2.103483125,0.222494572,1.081685305,0.543094099
2.113484688,0.180938289,0.831178129,0.426541001
2.123483125,0.160657555,0.608875573,0.275535136
2.133483125,0.159645259,0.427535862,0.109990649
2.143483125,0.177953765,0.320983499,-0.053023104
2.153483125,0.171530962,0.32597515,-0.18216002
2.163483125,0.132854462,0.417430401,-0.256685585
2.173483125,0.077003926,0.534227848,-0.26874581
2.183484688,0.045465827,0.594511509,-0.253805786
2.193484688,0.050195668,0.583742797,-0.262567341
2.203483125,0.066811204,0.491432369,-0.298748016
2.213483125,0.060475659,0.327947378,-0.385892302
2.223483125,0.027628561,0.109589227,-0.513510764
2.233483125,-0.027209682,-0.111037843,-0.646784127
2.243483125,-0.126396745,-0.274557739,-0.769428372
2.253484688,-0.281190008,-0.387829602,-0.863815784
2.263484688,-0.480750948,-0.462442428,-0.932669044
2.273483125,-0.673749447,-0.548085749,-1.023705363
2.283483125,-0.779516399,-0.607601464,-1.134987593
2.293483125,-0.806062877,-0.555067062,-1.240335703
2.303483125,-0.763756096,-0.443086743,-1.314965963
2.313483125,-0.677240133,-0.360724658,-1.378181815
2.323484688,-0.577564359,-0.284820288,-1.437924385
2.333484688,-0.53419292,-0.230383456,-1.509116411
2.343483125,-0.590427458,-0.313792735,-1.579522967
2.353525313,-0.707486689,-0.485288799,-1.638480186
2.363483125,-0.811159194,-0.642298639,-1.697245479
2.373483125,-0.848195136,-0.762255073,-1.761421204
2.383483125,-0.80793035,-0.808087468,-1.817236781
2.393484688,-0.698463321,-0.798104167,-1.861288905
2.403483125,-0.532971203,-0.754732728,-1.905236363
2.413483125,-0.327441216,-0.668792725,-1.938170671
2.423483125,-0.143291533,-0.561978579,-1.969412088
2.433483125,-0.04769985,-0.504504859,-1.998593926
2.443483125,-0.041748274,-0.495830595,-2.025384665
2.453483125,-0.0879995,-0.4924272,-2.06119895
2.463484688,-0.180501953,-0.513667822,-2.098287106
2.473484688,-0.297020137,-0.575731754,-2.116491079
2.483484688,-0.384216785,-0.663102925,-2.125235081
2.493483125,-0.403921545,-0.74467963,-2.142862797
2.503483125,-0.348315358,-0.77436769,-2.171940088
2.513483125,-0.23017402,-0.773425221,-2.202430964
2.523483125,-0.098593652,-0.80566144,-2.231054306
2.533484688,-0.007836528,-0.904691398,-2.251265287
2.543483125,0.036198128,-1.029203176,-2.257496119
2.553483125,0.062412973,-1.160888314,-2.255628586
2.563483125,0.076462872,-1.257405043,-2.262906551
2.573483125,0.065694191,-1.299066067,-2.276851892
2.583483125,0.011693706,-1.309485674,-2.293956041
2.593483125,-0.095434606,-1.329713941,-2.307238102
2.603483125,-0.226822987,-1.332017779,-2.308040857
2.613484688,-0.334771603,-1.337917089,-2.298703432
2.623484688,-0.397481292,-1.348807931,-2.283431768
2.633483125,-0.406836241,-1.336660385,-2.253272533
2.643483125,-0.348245531,-1.317217469,-2.213583708
2.653483125,-0.253648698,-1.307356358,-2.186024904
2.663483125,-0.172106922,-1.331965446,-2.178799152
2.673487813,-0.11896164,-1.388461828,-2.18443656
2.683484688,-0.070092425,-1.47092855,-2.190964222
2.693484688,-0.031782445,-1.54737401,-2.180370092
2.703483125,-0.003281219,-1.621131659,-2.12989521
2.713483125,0.039269909,-1.699950695,-2.040638924
2.723484688,0.130672798,-1.748209,-1.941766024
2.733483125,0.272637874,-1.72784102,-1.843922853
2.743483125,0.427221686,-1.633663058,-1.753584623
2.753484688,0.535205185,-1.500372291,-1.657556653
2.763484688,0.587687254,-1.330359817,-1.552313328
2.773487813,0.572049141,-1.148112535,-1.45019412
2.783483125,0.491763979,-0.992586195,-1.363590837
2.793483125,0.377776504,-0.904097974,-1.327724338
2.803483125,0.278676718,-0.857340634,-1.346992731
2.813483125,0.207153127,-0.830130935,-1.387624025
2.823487813,0.189420581,-0.811857343,-1.417486548
2.833484688,0.231186315,-0.775833786,-1.422757506
2.843483125,0.310424268,-0.694902837,-1.39923048
2.853483125,0.412735462,-0.569064617,-1.348563552
2.863483125,0.527071953,-0.407412201,-1.282415628
2.873484688,0.618003607,-0.228044719,-1.21604073
2.883481563,0.652892768,-0.091961399,-1.149857759
2.893484688,0.630168557,0.01452114,-1.073429823
2.903484688,0.549412191,0.099675752,-0.993877769
2.913483125,0.42381829,0.170344129,-0.919945598
2.92348625,0.288188756,0.232408047,-0.858998716
2.933483125,0.182072744,0.268222213,-0.818716466
2.943483125,0.149435088,0.310092658,-0.791140318
2.953483125,0.217747271,0.41359067,-0.752812862
2.963484688,0.355959892,0.58004272,-0.686211109
2.97348625,0.502340674,0.764035344,-0.588594854
2.983484688,0.621878266,0.946910918,-0.461081088
2.993483125,0.695845306,1.124410868,-0.318766922
3.003483125,0.700784624,1.260808349,-0.174864531
3.013483125,0.650763452,1.340220928,-0.030246556
3.02348625,0.59039253,1.371619344,0.106028751
3.033483125,0.559063852,1.40265131,0.223786116
3.043484688,0.5593431,1.454871535,0.332345605
3.053484688,0.588402867,1.526482463,0.438880503
3.063483125,0.616205931,1.591478467,0.532814085
3.073483125,0.640361309,1.640208006,0.643904328
3.083483125,0.656208873,1.650610209,0.760474861
3.093483125,0.656749964,1.620904684,0.868388593
3.103483125,0.636294663,1.571773648,0.968500674
3.113484688,0.611476123,1.517354369,1.075471878
3.12348625,0.606973171,1.469951153,1.189267397
3.133483125,0.615036547,1.42075038,1.303394437
3.143483125,0.633990824,1.361060143,1.429285049
3.153483125,0.662369907,1.274195075,1.581914067
3.163483125,0.698096812,1.150171995,1.768454909
3.173483125,0.745395243,1.01091218,1.969010592
3.183483125,0.819711328,0.882630467,2.144381285
3.193483125,0.920539021,0.786392987,2.265175581
3.203483125,1.037039757,0.734382212,2.337606668
3.213483125,1.154011726,0.714380741,2.385830164
3.223490938,1.25508368,0.702704489,2.437125444
3.233483125,1.316920757,0.685216248,2.504372835
3.243483125,1.327584743,0.676699042,2.576280594
3.253484688,1.286342502,0.688532412,2.643493176
3.263484688,1.184380412,0.713490605,2.71018219
3.273483125,1.029290438,0.730350494,2.777237654
3.283483125,0.838281631,0.727784812,2.839615822
3.293483125,0.631268144,0.715096295,2.885360956
3.303483125,0.43008402,0.719302535,2.901976347
3.313483125,0.250873625,0.742812157,2.880980015
3.323484688,0.105190992,0.747821212,2.832215548
3.333483125,-0.001064651,0.702198327,2.766887903
3.343483125,-0.03478441,0.63772583,2.683827639
3.353483125,-0.020751964,0.610236943,2.586351156
3.363483125,-0.021676989,0.607200027,2.482992649
3.373483125,-0.069865532,0.612209141,2.384625912
3.383483125,-0.158912227,0.627899647,2.271947384
3.393484688,-0.269269407,0.582625806,2.142094851
3.403484688,-0.365087986,0.420711607,2.04186058
3.413483125,-0.411426455,0.203645021,1.967247844
3.423483125,-0.385822475,0.009686577,1.919390917
3.433483125,-0.292168111,-0.096935585,1.894118547
3.443483125,-0.185336515,-0.086707957,1.823380351
3.453483125,-0.100583322,-0.010838495,1.697699189
3.463484688,-0.03169518,0.087406091,1.503147364
3.473484688,0.032463122,0.135472462,1.283811808
3.483484688,0.041469023,0.088610366,1.226774454
3.493483125,0.011466813,0.03351032,1.317653775
3.503483125,-0.003385939,0.046774823,1.414414763
3.513483125,0.004817109,0.18886207,1.430786014
3.523483125,0.017994344,0.387585253,1.351129174
3.533483125,0.017505653,0.567773044,1.218641281
3.543483125,-0.017732546,0.707853198,1.077740788
3.553484688,-0.093881257,0.74068284,0.973055959
3.563483125,-0.194743842,0.640500903,0.9003281
3.573483125,-0.316899419,0.457747489,0.847008288
3.583483125,-0.437379509,0.263213098,0.801141024
3.593483125,-0.56820941,0.050562188,0.705496967
3.603483125,-0.674412668,-0.09944886,0.561908722
3.613484688,-0.772622347,-0.171583325,0.375367969
3.623484688,-0.868196607,-0.176679686,0.177604705
3.633483125,-0.985238373,-0.111805789,-0.011100294
3.643483125,-1.147815824,-0.055658549,-0.159802347
3.653483125,-1.332105041,-0.081227623,-0.231256127
3.663483125,-1.482220888,-0.130079389,-0.230453268
3.673483125,-1.555262923,-0.175143793,-0.196052834
3.683484688,-1.548560858,-0.22481586,-0.173817337
3.693483125,-1.487561584,-0.252479315,-0.207886159
3.703483125,-1.396664858,-0.319133461,-0.298329115
3.713483125,-1.305174708,-0.381651133,-0.43111378
3.723483125,-1.245379686,-0.447205722,-0.562606871
3.733483125,-1.224749923,-0.592015684,-0.663836002
3.743483125,-1.216494441,-0.802223146,-0.705130458
3.753483125,-1.164797783,-0.955061615,-0.711082041
3.763484688,-1.045888543,-0.984138787,-0.731153309
3.773483125,-0.920661151,-0.94844681,-0.781942427
3.783483125,-0.867515922,-0.947713792,-0.874340117
3.793483125,-0.923750401,-0.962374568,-0.999462783
3.803483125,-1.043480039,-0.989462078,-1.148810625
3.813483125,-1.141270757,-1.021576166,-1.285696745
3.823484688,-1.142283082,-1.017666578,-1.340168476
3.833484688,-1.001382709,-0.910067022,-1.29524374
3.843483125,-0.790494502,-0.709249437,-1.197959065
3.853483125,-0.566115022,-0.424586236,-1.052014709
3.863483125,-0.439369172,-0.133500233,-0.899211109
3.873481563,-0.437850744,0.141354218,-0.791506827
3.883483125,-0.536967993,0.352573961,-0.789063334
3.893484688,-0.646627009,0.5459041,-0.877586424
3.903484688,-0.704589427,0.794491351,-0.999375522
3.913484688,-0.692337215,0.93207562,-1.062608838
3.923483125,-0.647429883,0.97792542,-1.009271502
3.933483125,-0.606327355,0.988170505,-0.840533137
3.943483125,-0.573358119,0.950593591,-0.600305974
3.953483125,-0.541558206,0.878494024,-0.343742609
3.963484688,-0.492008328,0.804160476,-0.105190992
3.973484688,-0.390011281,0.742305994,0.062168628
3.983484688,-0.224187538,0.713979304,0.118088976
3.993483125,-0.009372418,0.758956432,0.098454021
4.003483125,0.222250223,0.846833766,0.043196898
4.013483125,0.385071993,0.967226565,-0.013229595
4.023483125,0.431340665,1.068508029,-0.036512289
4.033483125,0.364424735,1.114741802,-0.048502699
4.043484688,0.187378541,1.141550064,-0.06775368
4.053484688,-0.0856084,1.167258739,-0.09243264
4.063483125,-0.391407549,1.068455696,-0.135856435
4.073483125,-0.626817524,0.800722122,-0.245253667
4.083483125,-0.718080819,0.661130726,-0.340670824
4.093483125,-0.605000913,0.710226834,-0.465287328
4.103483125,-0.333183348,0.661898673,-0.626451015
4.113484688,-0.015044739,0.466229796,-0.711204231
4.123484688,0.292115748,0.295117736,-0.715340674
4.133483125,0.595541239,0.128403872,-0.678479314
4.143483125,0.882124305,-0.039933134,-0.598089397
4.153483125,1.126260996,-0.203889355,-0.500857115
4.163483125,1.311771989,-0.471465796,-0.422177702
4.173483125,1.408079267,-0.635072947,-0.374303311
4.183484688,1.446598649,-0.806778431,-0.529253662
4.193484688,0.125349551,0.744749427,0.917711556
4.203483125,-1.441711783,1.28023386,2.759871721
4.213483125,-1.044492245,0.571944416,2.490026236
4.223483125,-0.740420997,1.235954881,1.906074047
4.233483125,-0.328924745,1.610886574,1.252867103
4.243483125,0.00996583,1.625110984,0.831038535
4.253484688,0.226107404,1.175409436,0.554421306
4.263484688,0.219981298,0.644881725,0.309743583
4.273483125,-0.172246546,-0.084037602,-0.060946897
4.283483125,-0.87608546,-0.924343824,-0.557318509
4.293483125,-0.884393215,-0.981765151,-0.92090553
4.303483125,-0.881024778,-0.952286541,-1.052067041
4.313483125,-0.560442686,-0.940784812,-1.158863664
4.323484688,-0.17055358,-0.832644224,-1.177503824
4.333484688,0.165980816,-0.76253432,-1.140764594
4.343483125,0.4346219,-0.952967227,-1.071632147
4.353483125,0.530632436,-1.232935429,-1.00876534
4.363483125,0.419053555,-1.416247368,-1.002028465
4.373483125,0.137741387,-1.50140202,-1.082034349
4.383483125,-0.206908777,-1.415147901,-1.191553712
4.393484688,-0.580671012,-1.026183724,-1.262239575
4.403484688,-1.067146659,0.61690408,-1.316589117
4.413484688,-1.46317935,1.667365432,-1.435952187
4.423483125,-1.745905161,2.13937211,-1.571337342
4.433483125,-1.864919186,2.793224812,-1.760042429
4.443483125,-1.83500421,3.363109827,-1.926319838
4.453483125,-1.699915767,3.63314724,-2.045264006
4.463484688,-1.364655495,3.134541512,-2.207300425
4.473484688,-0.9791646,2.487635136,-2.321933746
4.483484688,-0.758554995,2.109265327,-2.254459143
4.493483125,-0.650362015,1.005309701,-2.014476538
4.503483125,-0.710261762,-0.099396497,-1.519727945
4.513483125,-0.596885145,-0.498832554,-1.043654561
4.523483125,-0.447170794,-0.549900889,-0.482967496
4.533483125,-0.319465071,-0.310057729,0.171880022
4.543484688,-0.232687294,0.007225663,0.759776711
4.553484688,-0.192998514,0.234624609,1.142771721
4.563483125,-0.197623625,0.531103671,1.306291699
4.573483125,-0.209771127,0.794491351,1.241330504
4.583483125,-0.213191971,0.914325655,1.01853919
4.593483125,-0.227590933,0.938638091,0.769533098
4.603483125,-0.269705743,0.918392241,0.596518636
4.613484688,-0.350863546,0.844809175,0.557301104
4.623484688,-0.467451543,0.708411694,0.626032174
4.633483125,-0.626119435,0.557388365,0.791035593
4.643483125,-0.673731983,0.517751932,1.012133837
4.653483125,-0.60313344,0.550424457,1.229758978
4.663484688,-0.448654324,0.718866229,1.427434921
4.673483125,-0.237644032,0.967470884,1.613731384
4.683484688,-0.028169613,1.17430985,1.78857851
4.693484688,0.13404128,1.330796123,1.915463924
4.703483125,0.213157058,1.46581471,1.990495682
4.713483125,0.201568082,1.609944105,2.042942762
4.723483125,0.090477869,1.91919899,2.131518364
4.733483125,-0.07054621,2.41900897,2.278422594
4.743483125,-0.115244091,2.892237425,2.382339478
4.753484688,0.059882246,3.210079432,2.39104867
4.763484688,0.420729071,3.285512447,2.289557695
4.773483125,0.817808926,3.067014694,2.098548889
4.783483125,1.088753819,2.6671772,1.841776133
4.793483125,1.144848704,2.195885897,1.529868364
4.803483125,0.991312087,1.763114095,1.233895421
4.813483125,0.672545195,1.61371398,1.043794155
4.823484688,0.339187294,1.604393959,0.971973836
4.833484688,0.170466304,1.53236413,0.949668527
4.843483125,0.217782184,1.42916286,0.92865479
4.853483125,0.398319036,1.276324391,0.895109534
4.863483125,0.521155298,1.00398314,0.872961342
4.873481563,0.438269615,0.593429387,0.812887073
4.883481563,0.144844875,0.197449103,0.714590132
4.893484688,-0.358665168,-0.097476639,0.586256087
4.903484688,-0.858387828,-0.295449346,0.408267409
4.913484688,-1.133154988,-0.456979543,0.211917877
4.923483125,-1.060095549,-0.523110092,0.065519661
4.933483125,-0.692267418,-0.42826888,0.004747296
4.943483125,-0.164846346,-0.223698854,0.023649212
4.953483125,0.366885662,-0.072553337,0.072570793
4.963484688,0.702669561,-0.047595128,0.090844385
4.973484688,0.764489114,-0.135071024,0.017837266
4.983484688,0.584004641,-0.254277021,-0.128264248
4.993483125,0.248150915,-0.341805279,-0.248971224
5.003483125,-0.052098077,-0.500839651,-0.407167852
5.013483125,-0.183800623,-0.709720671,-0.655720174
5.023483125,-0.171949834,-0.887115955,-0.89018774
5.033483125,-0.057875119,-1.012989044,-1.099906445
5.043484688,0.10808824,-1.07667613,-1.290496469
5.053484688,0.29480356,-1.090883136,-1.431763411
5.063483125,0.489215791,-1.118057966,-1.539624691
5.073483125,0.650327146,-1.158427358,-1.639509916
5.083483125,0.750142515,-1.177346706,-1.759902716
5.093483125,0.797859788,-1.181343555,-1.904817462
5.103483125,0.799657524,-1.177643418,-2.058214426
5.113484688,0.74570936,-1.155338168,-2.1967237
5.123484688,0.645579815,-1.146820903,-2.306173325
5.133483125,0.507855892,-1.179633141,-2.390559912
5.143483125,0.346762002,-1.244629145,-2.44881916
5.153508125,0.139434353,-1.326362967,-2.500882387
5.163483125,-0.076934114,-1.35725534,-2.550379753
5.173483125,-0.260507852,-1.301736355,-2.591814041
5.183484688,-0.366728574,-1.212829351,-2.617330551
5.193484688,-0.370254159,-1.126540184,-2.610698462
5.203483125,-0.3014009,-1.013565063,-2.57123661
5.213483125,-0.200084552,-0.874759018,-2.501213789
5.223483125,-0.099920101,-0.752079844,-2.399251699
5.233483125,-0.027331855,-0.614460588,-2.258298874
5.243483125,0.031956978,-0.449788809,-2.088391066
5.253484688,0.124023095,-0.311314374,-1.920542836
5.263484688,0.256476134,-0.197990149,-1.776046991
5.273483125,0.401373357,-0.107791536,-1.678465724
5.283483125,0.487592638,-0.012322024,-1.616087556
5.293483125,0.48867473,0.081594139,-1.533428788
5.303483125,0.431288302,0.100949846,-1.405531049
5.313483125,0.332188517,0.08948303,-1.257789016
5.323484688,0.23528783,0.025237462,-1.121827841
5.333484688,0.181950569,-0.139748514,-1.0030756
5.343483125,0.162647232,-0.368037581,-0.864007771
5.353483125,0.142785385,-0.578157783,-0.679962814
5.363483125,0.092868969,-0.69813168,-0.455216765
5.373483125,0.013700834,-0.699109077,-0.226491377
5.383483125,-0.087475903,-0.581910253,-0.027942721
5.393484688,-0.186278984,-0.40208894,0.115296453
5.403484688,-0.274278492,-0.225095108,0.204028994
5.413484688,-0.364162952,-0.082117744,0.281067818
5.423483125,-0.415580332,-0.033597589,0.331455469
5.433483125,-0.434307724,-0.04766494,0.367130011
5.443483125,-0.454099774,-0.08890707,0.396922767
5.453483125,-0.482356638,-0.142942458,0.411845356
5.463484688,-0.540947318,-0.161582574,0.4489685
5.473484688,-0.62498492,-0.146468028,0.559325635
5.483484688,-0.680259526,-0.115924768,0.705898404
5.493483125,-0.684343576,-0.062954023,0.860447347
5.503483125,-0.639942408,0.007225663,0.993423939
5.513483125,-0.562362552,0.039915681,1.060235143
5.523483125,-0.485480785,-0.025743606,1.061177611
5.533483125,-0.46921432,-0.146694928,1.051159501
5.543484688,-0.549761236,-0.21491985,1.078264356
5.553484688,-0.695251882,-0.207397476,1.138722658
5.563483125,-0.839712799,-0.146223679,1.233720899
5.573483125,-0.938830078,-0.068626344,1.379996896
5.583483125,-0.975743771,-0.015184364,1.566921711
5.593483125,-0.949825644,0.029304078,1.752031326
5.603483125,-0.881687999,0.08323475,1.90282774
5.613484688,-0.794840395,0.09615019,2.011910915
5.623484688,-0.707189977,0.079150684,2.069000483
5.633483125,-0.651252151,0.10290461,2.114204645
5.643483125,-0.646993577,0.174916893,2.169531584
5.653483125,-0.672614992,0.231430665,2.208801508
5.663483125,-0.693087697,0.255498737,2.219151258
5.673483125,-0.711291492,0.290789306,2.226359367
5.683484688,-0.713403344,0.399540782,2.244196653
5.693483125,-0.664097786,0.570356131,2.241613626
5.703483125,-0.542570531,0.75684458,2.217021942
5.713483125,-0.355575919,0.96391046,2.16906023
5.723483125,-0.128159523,1.138600469,2.092422962
5.733483125,0.075572759,1.220316768,2.010881186
5.743483125,0.205163449,1.198552489,1.948625207
5.753484688,0.244450808,1.114794135,1.888865113
5.763484688,0.205233261,0.991050303,1.832264066
5.773483125,0.124319799,0.858614743,1.797462225
5.783483125,0.056845374,0.760282874,1.777286172
5.793483125,0.030665435,0.705549359,1.772050261
5.803483125,0.028431414,0.719634175,1.787932754
5.813483125,0.03721042,0.79019779,1.811651707
5.823484688,0.047891833,0.843168557,1.827935696
5.833484688,0.046513025,0.864164889,1.842788458
5.843483125,0.022549653,0.886470199,1.860433698
5.853483125,-0.002844887,0.913313329,1.854272723
5.863483125,0.001029744,0.92354095,1.815927863
5.873483125,0.030560715,0.9051103,1.786955357
5.883481563,0.063826688,0.88552767,1.780235887
5.893484688,0.083269656,0.858178377,1.783167958
5.903484688,0.08635889,0.806603909,1.784773707
5.913484688,0.070458941,0.755727589,1.783412337
5.923483125,0.03408628,0.722636104,1.773725748
5.933483125,-0.013334315,0.678322196,1.749168992
5.943483125,-0.056932639,0.633188009,1.726968408
5.953483125,-0.093340211,0.593673766,1.752467632
5.963483125,-0.110793501,0.541889846,1.823135972
5.973484688,-0.093462378,0.464711368,1.889353871
5.983484688,-0.051626839,0.372627795,1.938799024
5.993483125,-0.017767452,0.24324654,1.99259007
6.003483125,-0.010279989,0.099885195,2.043239594
6.013483125,-0.037192967,-0.038711403,2.089228868
6.023483125,-0.096830867,-0.155456483,2.145795107
6.033483125,-0.162420332,-0.229632974,2.194838762
6.043484688,-0.183050126,-0.271695405,2.212676048
6.053484688,-0.155910268,-0.248360351,2.198730946
6.063483125,-0.107983522,-0.172997028,2.171974897
6.073483125,-0.032079153,-0.036128316,2.054252625
6.083483125,0.044680428,0.096429437,1.901117325
6.093483125,0.094561942,0.180763751,1.783167958
6.103483125,0.109868474,0.2027549,1.691328764
6.113484688,0.093951076,0.188879535,1.589837909
6.123484688,0.030455995,0.202824712,1.466320872
6.133483125,-0.067666411,0.261223435,1.332750916
6.143483125,-0.151424766,0.327860087,1.187923431
6.153483125,-0.164252937,0.341979802,1.032658935
6.163483125,-0.116884701,0.301715076,0.870954216
6.173483125,-0.047019169,0.210032925,0.727767408
6.183484688,0.001256637,0.080564395,0.606065571
6.193484688,-0.007470009,-0.06387905,0.507524312
6.203483125,-0.086254172,-0.178669348,0.435145497
6.213483125,-0.1881814,-0.278624356,0.380342156
6.223483125,-0.267227352,-0.344946861,0.328802586
6.233483125,-0.305450082,-0.377130747,0.258413434
6.243483125,-0.297840446,-0.392123133,0.171827659
6.253484688,-0.251083076,-0.423050344,0.09023352
6.263484688,-0.183032677,-0.513074458,0.041207224
6.273483125,-0.117931895,-0.641391039,0.02284636
6.283483125,-0.0879995,-0.788871348,0.018116517
6.293483125,-0.115558252,-0.946457148,0.034976397
6.303483125,-0.195668861,-1.048942924,0.070389129
6.313483125,-0.312745541,-1.03025043,0.1325403
6.323484688,-0.396626085,-0.939231455,0.176086262
6.333484688,-0.384670556,-0.848701239,0.153222457
6.343483125,-0.287001938,-0.784333527,0.068591438
6.353483125,-0.149138391,-0.714590132,-0.057578411
6.363483125,-0.040509094,-0.66720444,-0.18364355
6.373483125,0.016510814,-0.645091116,-0.310214818
6.383483125,0.010332349,-0.628667593,-0.439456463
6.393484688,-0.053651422,-0.568034828,-0.571734965
6.403484688,-0.147096351,-0.463140577,-0.692598999
6.413484688,-0.204866752,-0.360078871,-0.819955707
6.423483125,-0.190869212,-0.328470975,-0.941098988
6.433483125,-0.132889375,-0.37739253,-1.027091384
6.443483125,-0.067055553,-0.463472188,-1.070096254
6.453483125,-0.021013765,-0.57731998,-1.083500385
6.463483125,-0.019128809,-0.671340883,-1.07770586
6.473484688,-0.064908795,-0.719494522,-1.077723384
6.483484688,-0.138369709,-0.681463778,-1.108545899
6.493483125,-0.216717526,-0.531627297,-1.189616442
6.503483125,-0.266878307,-0.365698844,-1.30979979
6.513483125,-0.276966304,-0.277751684,-1.428534508
6.523483125,-0.271101981,-0.263195664,-1.512135863
6.533483125,-0.263527274,-0.33974579,-1.550829768
6.543484688,-0.254416645,-0.525448799,-1.546169758
6.553484688,-0.24439846,-0.784473121,-1.497736812
6.563483125,-0.271363795,-0.941832006,-1.417504072
6.573483125,-0.349781424,-0.878371835,-1.368564963
6.583483125,-0.426558465,-0.629453003,-1.39036417
6.593483125,-0.426558465,-0.353778243,-1.459723592
6.603483125,-0.32733649,-0.167185083,-1.559626222
6.613484688,-0.17088519,-0.137776285,-1.663403511
6.623483125,-0.02539454,-0.24064599,-1.730301976
6.633483125,0.067491882,-0.404811651,-1.738609672
6.643483125,0.107093401,-0.579658747,-1.679635048
6.653483125,0.095312431,-0.689562142,-1.596435189
6.663483125,0.042586032,-0.636155069,-1.573257208
6.673483125,-0.012845623,-0.430747271,-1.632999897
6.683484688,-0.027593656,-0.214762762,-1.732518554
6.693484688,0.006579891,-0.109048173,-1.818301439
6.703483125,0.07475245,-0.148946404,-1.871429324
6.713483125,0.134844139,-0.314071983,-1.895933747
6.723483125,0.148702055,-0.546968758,-1.8780092
6.733483125,0.114964835,-0.737785578,-1.819784999
6.743483125,0.023980824,-0.733561873,-1.795490026
6.753484688,-0.113516212,-0.515605152,-1.853731632
6.763484688,-0.222285137,-0.226386651,-1.959742904
6.773483125,-0.23336798,-0.050021138,-2.071286917
6.783483125,-0.146066606,-0.051644292,-2.150001287
6.793483125,-0.021048671,-0.209701315,-2.168449402
6.803483125,0.076602504,-0.455007344,-2.116054535
6.813483125,0.116867244,-0.648372352,-2.008734226
6.823484688,0.089727379,-0.683156788,-1.942027807
6.833484688,-0.003246312,-0.584667861,-1.949567676
6.843484688,-0.099204518,-0.431340665,-1.984247327
6.853483125,-0.137025803,-0.262183368,-2.022330523
6.863483125,-0.137514487,-0.146468028,-2.067045689
6.873481563,-0.146101505,-0.136659279,-2.101062298
6.883483125,-0.161093891,-0.235741615,-2.110434771
6.893484688,-0.178564638,-0.394269884,-2.126753569
6.903484688,-0.205355436,-0.597583294,-2.15780282
6.913484688,-0.234362811,-0.713577867,-2.194088221
6.923483125,-0.26771605,-0.679561377,-2.261632442
6.933483125,-0.278170586,-0.571804762,-2.34005022
6.943483125,-0.22458896,-0.433347791,-2.402166367
6.953483125,-0.142087251,-0.331682384,-2.44213438
6.963483125,-0.066566855,-0.330809712,-2.449272871
6.973483125,-0.008691739,-0.417604923,-2.405604839
6.983484688,-0.006597345,-0.472844601,-2.33926487
6.993483125,-0.025883233,-0.509653568,-2.288021803
7.003483125,-0.031660274,-0.513336241,-2.243777752
7.013483125,-0.024626596,-0.446315587,-2.2222929
7.023483125,0.021921335,-0.368351728,-2.247757196
7.033483125,0.108524576,-0.328348786,-2.291058779
7.043484688,0.186593145,-0.329238921,-2.312945127
7.053484688,0.245916888,-0.383274317,-2.307377577
7.063483125,0.269409031,-0.485061914,-2.267287493
7.073483125,0.228952289,-0.587599993,-2.205834389
7.083483125,0.146502942,-0.669455945,-2.143107176
7.093483125,0.067003191,-0.726475835,-2.092265844
7.103483125,0.021397736,-0.7508232,-2.047375917
7.113484688,0.043458696,-0.78904587,-1.989483356
7.123484688,0.107861347,-0.835035324,-1.900960207
7.133483125,0.160727367,-0.855979264,-1.773359179
7.143483125,0.195040539,-0.868510723,-1.617483854
7.153483125,0.184132233,-0.836204708,-1.440594792
7.163483125,0.139347091,-0.740141749,-1.271716714
7.173483125,0.106866509,-0.600672483,-1.137919784
7.183484688,0.121806525,-0.454501182,-1.016706705
7.193484688,0.198967531,-0.339710891,-0.88804096
7.203483125,0.32086134,-0.220487446,-0.761242807
7.213483125,0.410920322,-0.073932149,-0.636155069
7.223483125,0.473228574,0.042376593,-0.516006589
7.233483125,0.554683089,0.088697635,-0.405038565
7.243483125,0.677990615,0.024661502,-0.306828886
7.253484688,0.847619176,-0.084002696,-0.228463605
7.263484688,1.052869916,-0.148789316,-0.18226473
7.273483125,1.252064347,-0.132138878,-0.1373225
7.283483125,1.402494192,-0.038554322,-0.085800387
7.293483125,1.503269553,0.071139619,-0.0360585
7.303483125,1.564966917,0.156433865,0.030962141
7.313483125,1.593136549,0.212720722,0.119834304
7.323484688,1.622877002,0.226212129,0.202632725
7.333484688,1.658237338,0.196122646,0.259373367
7.343526875,1.683980942,0.129608154,0.300737679
7.353483125,1.707717419,0.036023594,0.327929914
7.363483125,1.73101759,-0.042498767,0.339100033
7.373483125,1.741681457,-0.07457792,0.35966
7.383483125,1.737126231,-0.072308987,0.409244806
7.393484688,1.711941123,-0.040980332,0.491624355
7.403484688,1.682689428,0.002251475,0.588978827
7.413484688,1.664468169,0.041957714,0.665389299
7.423483125,1.64793992,0.075206235,0.703716755
7.433483125,1.621149063,0.09262462,0.717609584
7.443483125,1.59016943,0.083356924,0.730437756
7.453483125,1.559364438,0.052359879,0.764192402
7.463483125,1.524230957,0.022165682,0.818681598
7.473484688,1.469061136,0.022148227,0.886976302
7.483484688,1.398392677,0.072518431,0.956614971
7.493483125,1.309677601,0.200485975,1.013966441
7.503483125,1.215063334,0.288921803,1.098894238
7.513483125,1.1424402,0.36316812,1.169894218
7.523483125,1.095525742,0.438636154,1.201449752
7.533483125,1.053829789,0.526391327,1.195760012
7.543484688,1.016235352,0.612732768,1.182163835
7.553484688,0.980683029,0.649716258,1.187906027
7.563483125,0.921289504,0.656261265,1.230649114
7.573483125,0.845891297,0.723334253,1.362369061
7.583483125,0.845140755,0.803828835,1.422809839
7.593483125,0.821020305,0.722775757,1.374691129
7.603483125,0.746267855,0.824702978,1.279308915
7.613484688,0.680608571,0.956300795,1.160731196
7.623484688,0.665075183,0.980560899,1.00715971
7.633483125,0.670206428,0.976092815,0.841754854
7.643483125,0.646644473,1.0268296,0.702669561
7.653483125,0.589764178,1.083570242,0.643171251
7.663483125,0.52541393,1.115492225,0.676227808
7.673483125,0.466247261,1.175723553,0.767822683
7.683484688,0.42212534,1.269482732,0.881932318
7.693484688,0.396818072,1.349767804,0.954101682
7.703483125,0.356099516,1.41015625,0.957033813
7.713483125,0.273091674,1.450735092,0.942355633
7.723483125,0.15723671,1.469427586,0.936124802
7.733483125,0.048677232,1.505014896,0.915634632
7.743483125,-0.026686084,1.548002362,0.894393981
7.753484688,-0.063652158,1.588755727,0.889943361
7.763484688,-0.074700095,1.600152731,0.933524251
7.773483125,-0.092973687,1.56172061,1.030704141
7.783483125,-0.138544232,1.48754406,1.142614722
7.793483125,-0.227259323,1.442305207,1.248643398
7.803483125,-0.328505874,1.458728671,1.312836647
7.813483125,-0.412194401,1.486304879,1.317042947
7.823484688,-0.488482744,1.539485097,1.281507969
7.833484688,-0.548731506,1.65684104,1.223388553
7.843484688,-0.557754874,1.799242496,1.120763183
7.853483125,-0.531522572,1.891151547,1.026148915
7.863483125,-0.511241853,1.900227189,0.987891257
7.873483125,-0.514139116,1.782749057,0.98019433
7.883483125,-0.547911227,1.623400569,0.927398145
7.893484688,-0.635421991,1.540602088,0.854233921
7.903484688,-0.741101682,1.486025691,0.806010485
7.913484688,-0.803828835,1.426108479,0.757228553
7.923483125,-0.814789534,1.395128965,0.715410471
7.933483125,-0.804474592,1.385861278,0.723526239
7.943483125,-0.799570262,1.387466908,0.760579586
7.953483125,-0.798959374,1.349506021,0.772308171
7.963483125,-0.814370632,1.256096005,0.735202491
7.973484688,-0.857619882,1.140572667,0.634828627
7.983484688,-0.921446562,1.005815744,0.448218018
7.993483125,-0.995954692,0.881269097,0.233245805
8.003483125,-1.073918581,0.827722371,0.032829642
8.013483125,-1.164309144,0.879419029,-0.156817839
8.023483125,-1.245798588,0.986529887,-0.306130737
8.033483125,-1.312592268,1.07110858,-0.386764973
8.043484688,-1.36158371,1.109104395,-0.42381829
8.053483125,-1.382841825,1.053533077,-0.440416396
8.063483125,-1.391324162,0.902474821,-0.459004134
8.073483125,-1.375267029,0.679718494,-0.517891526
8.083483125,-1.359716177,0.460086256,-0.608386874
8.093483125,-1.366191387,0.293424755,-0.692092836
8.103483125,-1.384796619,0.18432422,-0.770318508
8.113484688,-1.403646111,0.142401412,-0.899821937
8.123483125,-1.414851189,0.159592912,-1.065488577
8.133483125,-1.417399287,0.206978589,-1.22799623
8.143483125,-1.416945577,0.315904588,-1.375912905
8.153483125,-1.397711992,0.473001689,-1.512223125
8.163483125,-1.34893012,0.671183825,-1.582804203
8.173483125,-1.238433242,0.831108332,-1.586539149
8.183484688,-1.038086891,0.863571465,-1.574636102
8.193484688,-0.811839879,0.764506578,-1.555315256
8.203483125,-0.623204708,0.593010545,-1.522904515
8.213483125,-0.503894031,0.37182495,-1.489167213
8.223483125,-0.518624604,0.222267672,-1.449234128
8.233483125,-0.636783361,0.189804554,-1.433072448
8.243483125,-0.759986162,0.209806025,-1.459706068
8.253484688,-0.829048872,0.284558475,-1.501698732
8.263484688,-0.811613023,0.368665904,-1.514509439
8.273483125,-0.688951254,0.375298142,-1.476147175
8.283483125,-0.478412211,0.26124087,-1.38434279
8.293483125,-0.226473927,-0.028763026,-1.251505733
8.303483125,0.003996804,-0.532674491,-1.088544369
8.313483125,0.14620623,-1.128041148,-0.899245977
8.323484688,0.162472695,-1.544389486,-0.727889538
8.333484688,0.082780965,-1.681223273,-0.634776235
8.343484688,-0.017680185,-1.509378195,-0.642647684
8.353483125,-0.063285641,-1.207540989,-0.712844849
8.363483125,-0.015097098,-0.923383892,-0.800844312
8.373483125,0.112975165,-0.750212312,-0.849155009
8.383483125,0.270962358,-0.724241853,-0.835262239
8.393484688,0.423137635,-0.824109554,-0.758554995
8.403484688,0.542640328,-0.976057947,-0.646539748
8.413484688,0.616380453,-1.024071932,-0.531732023
8.423483125,0.657116473,-0.977087677,-0.443051815
8.433483125,0.698096812,-0.879645944,-0.402577639
8.443483125,0.754872382,-0.76492542,-0.399418592
8.453483125,0.833220184,-0.695775509,-0.398685545
8.463483125,0.940924466,-0.763546646,-0.325242102
8.473484688,1.087392449,-0.899211109,-0.196576431
8.483484688,1.173332453,-1.05527842,-0.091717049
8.493483125,1.1840837,-1.205795646,0.01675516
8.503483125,1.138024449,-1.270878911,0.102573
8.513483125,1.06793201,-1.22832787,0.135873884
8.523483125,0.993406475,-1.100307941,0.122591928
8.533483125,0.928724587,-0.943472624,0.082396992
8.543484688,0.888512194,-0.858387828,0.036512289
8.553483125,0.872071207,-0.880640805,-0.00270526
8.563483125,0.847915828,-1.001365185,-0.000575959
8.573483125,0.823952496,-1.09646821,-0.00403171
8.583483125,0.792065322,-1.122560859,-0.052604225
8.593483125,0.742550313,-1.101040959,-0.123028256
8.603483125,0.676908493,-1.052241564,-0.203418121
8.613484688,0.608386874,-0.986111045,-0.283930153
8.623484688,0.54363513,-0.860726595,-0.341910005
8.633483125,0.506093144,-0.704990864,-0.396119922
8.643483125,0.482182115,-0.608351946,-0.445861816
8.653483125,0.438426703,-0.481274545,-0.464833528
8.663483125,0.358141571,-0.32028538,-0.444936782
8.673483125,0.255952537,-0.205268174,-0.390063643
8.683484688,0.145839706,-0.155491382,-0.340164661
8.693484688,0.050160762,-0.173834786,-0.32494539
8.703483125,-0.027838001,-0.240820527,-0.343061924
8.713483125,-0.09482374,-0.32676053,-0.370585769
8.723483125,-0.160221219,-0.402560204,-0.380761027
8.733483125,-0.237015709,-0.406434834,-0.364372373
8.743483125,-0.333445162,-0.303966552,-0.326324195
8.753484688,-0.434133202,-0.127810463,-0.272917122
8.763484688,-0.515343368,0.041503929,-0.211429179
8.773483125,-0.556061924,0.15280357,-0.158074468
8.783483125,-0.560512483,0.224170089,-0.130777523
8.793483125,-0.540737927,0.271346331,-0.117670096
8.803483125,-0.518205702,0.283930153,-0.103166409
8.813483125,-0.506110549,0.278222948,-0.073076934
8.823484688,-0.527525783,0.269618452,-0.011274827
8.833484688,-0.587495267,0.227014974,0.092729345
8.843484688,-0.61179024,0.10290461,0.192492366
8.853483125,-0.202667639,-0.348053545,0.177395269
8.863483125,0.111264743,-0.148981303,0.092991143
8.873483125,0.250629276,0.150133222,0.11639601
8.883483125,0.332747012,0.260682374,0.057875119
8.893483125,0.267942935,0.426349014,-0.006527531
8.903484688,0.184743106,0.513388574,-0.016702801
8.913484688,0.112032682,0.539847791,0.021554817
8.923483125,0.065572023,0.54578191,0.041032691
8.933483125,0.041730821,0.541942179,0.034854226
8.943483125,0.026337018,0.579204977,0.030351276
8.953483125,0.028902652,0.682319045,0.026930431
8.963483125,0.086585782,0.799378276,0.017174039
8.973484688,0.196332082,0.867725313,0.017104227
8.983483125,0.318278253,0.895964742,0.040735986
8.993483125,0.413276523,0.923977315,0.084631018
9.003483125,0.466526508,0.971467733,0.115470983
9.013483125,0.488290757,1.032624006,0.118438043
9.023483125,0.48207739,1.122089624,0.116605446
9.033483125,0.467294455,1.225797057,0.123045713
9.043484688,0.457625329,1.301579237,0.13870132
9.053484688,0.443645239,1.363782763,0.168371916
9.063483125,0.423015445,1.398130894,0.193382487
9.073483125,0.389156073,1.382649779,0.203051612
9.083483125,0.339274555,1.305418968,0.212790549
9.093483125,0.283179671,1.169963956,0.214727864
9.103483125,0.218340695,1.010859847,0.205076188
9.113483125,0.177849054,0.847287536,0.1857903
9.123484688,0.14564772,0.670782387,0.161373138
9.133483125,0.110374622,0.486510515,0.135821521
9.143483125,0.071558498,0.315258831,0.114161983
9.153483125,0.029478611,0.17442821,0.084945172
9.163483125,-0.019373154,0.070214592,0.049706977
9.173483125,-0.075886913,0.009564404,0.002129302
9.183484688,-0.106587254,-0.029653143,-0.03185226
9.193484688,-0.200992122,-0.007766715,-0.053703781
9.203483125,-0.444029212,0.024644049,-0.021066124
9.213483125,-0.476754129,-0.132994086,-0.000593412
9.22348625,-0.347652137,-0.283668369,0.010367256
9.233483125,-0.16133824,-0.320041031,0.026040312
9.243483125,0.032166418,-0.283511281,0.061103977
9.253484688,0.165788829,-0.205303073,0.10587167
9.263484688,0.230453268,-0.126990154,0.107599549
9.273489375,0.262357891,-0.110706232,0.074996799
9.283483125,0.249896243,-0.121090941,0.040910516
9.293483125,0.18943803,-0.152663946,0.033248521
9.303483125,0.112556286,-0.217206225,0.037629299
