Time (s),Acceleration x (m/s^2),Acceleration y (m/s^2),Acceleration z (m/s^2),Gyroscope x (rad/s),Gyroscope y (rad/s),Gyroscope z (rad/s)
0.0,-0.8599206805,-0.1647115052,9.357966423,-0.007539822254,0.1919338554,-0.0182561446
0.002,-0.8457852602,-0.1613308936,9.371508598,-0.005358160939,0.1784773618,-0.02110103145
0.004,-0.8491659164,-0.1661959141,9.373529434,-0.003211405827,0.1657364666,-0.02446951531
0.006,-0.8495872617,-0.163102597,9.373222351,-0.0007504915702,0.1548805237,-0.02775073424
0.008,-0.860686779,-0.1509400457,9.373194695,0.002111848444,0.1457175314,-0.02970550396
0.01,-0.87599051,-0.1416984349,9.370359421,0.00486946851,0.1382126212,-0.03050835431
0.012,-0.8924434781,-0.1327153891,9.351828575,0.008517206647,0.1316676438,-0.03176499158
0.014,-0.9045102596,-0.1049139202,9.315282822,0.01253146399,0.1264840066,-0.0332310684
0.016,-0.9198810458,-0.08833646029,9.27287674,0.01637118869,0.1218588874,-0.03415609151
0.018,-0.9372725487,-0.06157886982,9.228899956,0.02045525797,0.1171290427,-0.03546509147
0.02,-0.9663285613,-0.04007893801,9.193916321,0.02497566119,0.1133067757,-0.03726277873
0.022,-1.000527382,-0.02934333682,9.160349846,0.02932153083,0.1111251116,-0.0389382951
0.024,-1.038192868,-0.03530010954,9.13333416,0.03298672289,0.109920837,-0.04089306295
0.026,-1.064605713,-0.03481169045,9.102629662,0.03605850041,0.1084722131,-0.04199262336
0.028,-1.089965105,-0.03010948002,9.067521095,0.0382576175,0.1059938446,-0.04244640842
0.03,-1.109702826,-0.04330632091,9.04871273,0.03947934881,0.1030965969,-0.04326671362
0.032,-1.130130291,-0.05673300102,9.020691872,0.04122467712,0.1009672955,-0.04391248524
0.034,-1.154321313,-0.06663542241,8.983849525,0.04352851212,0.09852383286,-0.04480260238
0.036,-1.166962624,-0.07790732384,8.953481674,0.04508185387,0.0956440419,-0.04579744115
0.038,-1.19358623,-0.09706093371,8.914647102,0.04572762549,0.09194394201,-0.04715879634
0.04,-1.196689129,-0.1169232354,8.86797905,0.04630358517,0.08632398397,-0.04928809777
0.042,-1.195185542,-0.1453663409,8.831922531,0.04778711498,0.08087855577,-0.0514173992
0.044,-1.191479206,-0.1647976935,8.79558754,0.04902629927,0.07583455741,-0.05354670063
0.046,-1.180887341,-0.1671823114,8.758785248,0.04953244328,0.06967354566,-0.0553618446
0.048,-1.175543427,-0.1767974198,8.721358299,0.05005604401,0.06243042648,-0.05735151842
0.05,-1.151831269,-0.1896495074,8.685120583,0.05057964101,0.05443681777,-0.05974261835
0.052,-1.134535551,-0.2075868696,8.648584366,0.05017821491,0.04516912252,-0.06262241304
0.054,-1.13309896,-0.2105173618,8.603746414,0.04874704406,0.03478441015,-0.06599090248
0.056,-1.120601296,-0.1981249899,8.570955276,0.0472111553,0.02328269184,-0.06958627701
0.058,-1.098718286,-0.1973971426,8.532781601,0.04532619938,0.0110304812,-0.07262314856
0.06,-1.081834316,-0.1961425841,8.501177788,0.04361577705,-0.0008726646192,-0.07480481267
0.062,-1.053621054,-0.1991305351,8.479554176,0.04228932783,-0.01583013684,-0.07695156336
0.064,-1.018637061,-0.218887493,8.459711075,0.04047418386,-0.03075270168,-0.07845254987
0.066,-0.9978075027,-0.2308489233,8.45179081,0.03817034885,-0.0441044718,-0.07874925435
0.068,-0.9853672385,-0.2359821051,8.429793358,0.03563962504,-0.05930628628,-0.07855726779
0.07,-0.9760872722,-0.2548771501,8.41249752,0.03335324302,-0.07497934252,-0.07880161703
0.072,-0.9633789062,-0.2642145157,8.384762764,0.03179989755,-0.09080947936,-0.07920303941
0.074,-0.9460544586,-0.2694817781,8.365436554,0.03021164984,-0.1067268848,-0.07937757671
0.076,-0.9435262084,-0.2901389599,8.350304604,0.02862340026,-0.1236391217,-0.07881906629
0.078,-0.93688941,-0.2963638604,8.325233459,0.02797762863,-0.1412320435,-0.07731808722
0.08,-0.9163280129,-0.3037284315,8.305600166,0.02771582827,-0.1600815952,-0.0760788992
0.082,-0.8949717283,-0.3081816435,8.289242744,0.02696533687,-0.180065617,-0.07557275891
0.084,-0.8898003101,-0.3238492906,8.260139465,0.02541199327,-0.1995609403,-0.07473500073
0.086,-0.8817461729,-0.3308595419,8.234272003,0.02350958437,-0.2179218084,-0.07314674556
0.088,-0.8683099151,-0.3564966321,8.206088066,0.02146754973,-0.2345373482,-0.0712268874
0.09,-0.8635502458,-0.3843268454,8.177032471,0.01905899495,-0.2507688999,-0.06949900836
0.092,-0.8466759324,-0.4061906636,8.15162468,0.01651081443,-0.267174989,-0.06815510988
0.094,-0.8310561776,-0.4206516743,8.120835304,0.01389282104,-0.2830051482,-0.06698573381
0.096,-0.8138370514,-0.4403607249,8.093263626,0.01092576142,-0.2989050746,-0.0652404055
0.098,-0.7956602573,-0.4604720175,8.06902504,0.007522369269,-0.3145432472,-0.06328564137
0.1,-0.7855088711,-0.4720408022,8.05083847,0.00359537825,-0.3284709752,-0.06152285635
0.102,-0.7698603272,-0.4733815491,8.031474113,0.0004188790335,-0.3407755494,-0.05986479297
0.104,-0.7589236498,-0.4776815474,7.995120525,-0.003054326167,-0.3505144715,-0.05824163556
0.106,-0.7465025187,-0.4884267151,7.9607687,-0.007958701812,-0.3589095175,-0.05663593486
0.108,-0.7276744843,-0.476972878,7.919511795,-0.01151917316,-0.3670601845,-0.0553618446
0.11,-0.7131560445,-0.4655285776,7.872537613,-0.01424188633,-0.3738495111,-0.05419247225
0.112,-0.7078983784,-0.4546110332,7.826042175,-0.01755801216,-0.3791378736,-0.05277875811
0.114,-0.706509769,-0.4352562726,7.785024643,-0.02017600648,-0.3834837377,-0.05157447979
0.116,-0.6991260648,-0.4165144861,7.741574764,-0.02218313515,-0.3868522346,-0.05108578876
0.118,-0.703962326,-0.3964223266,7.69754076,-0.02363175713,-0.3882135749,-0.05087634921
0.12,-0.708281517,-0.3683527112,7.636909485,-0.02453932911,-0.3874979913,-0.05112069473
0.122,-0.7071034908,-0.3416908979,7.564211845,-0.02647664398,-0.3869045973,-0.05215043947
0.124,-0.7026024461,-0.3068600595,7.504586697,-0.02790781483,-0.3869743943,-0.052900929
0.126,-0.6981396675,-0.2781775296,7.431219101,-0.02848377265,-0.3860493898,-0.05288347602
0.128,-0.7202525139,-0.2615617514,7.350161076,-0.02935643867,-0.384408772,-0.0531976372
0.13,-0.7517314553,-0.2461622506,7.277290821,-0.02939134464,-0.3831172287,-0.05363396928
0.132,-0.7791594267,-0.2310500294,7.181082726,-0.02972295694,-0.3819653094,-0.05445427075
0.134,-0.8055818677,-0.2113218158,7.083351135,-0.02953097038,-0.3802199662,-0.0551000461
0.136,-0.8305868506,-0.1977897882,6.96861124,-0.02820452116,-0.3788935244,-0.05504768342
0.138,-0.8641344309,-0.1862114221,6.849811077,-0.02701769583,-0.3777067065,-0.05532693863
0.14,-0.8951824307,-0.1786840707,6.735339165,-0.02528982051,-0.3759788275,-0.05607742816
0.142,-0.9359317422,-0.1765101254,6.622228146,-0.02172934823,-0.3736924529,-0.0567057468
0.144,-0.9841030836,-0.1849951744,6.520483971,-0.0177674517,-0.3714933395,-0.05728170648
0.146,-1.02731359,-0.2000594884,6.43327713,-0.01425934024,-0.3693291247,-0.05876523629
0.148,-1.081757784,-0.2164741307,6.356001854,-0.01029744279,-0.3675139844,-0.06031857803
0.15,-1.149609447,-0.2298146337,6.285497665,-0.005846852902,-0.3670776486,-0.06222098693
0.152,-1.212433338,-0.2650094032,6.229664803,-0.0008901178953,-0.3672172725,-0.06424556673
0.154,-1.267634034,-0.3016023934,6.153079033,0.005218534265,-0.3663446009,-0.06571164727
0.156,-1.332574368,-0.3305338919,6.072212696,0.01181587856,-0.3650356233,-0.06756169349
0.158,-1.38995862,-0.3569180071,5.996182442,0.01860520989,-0.3651228845,-0.0689579621
0.16,-1.45659399,-0.3958764672,5.923025608,0.02516764775,-0.3658035696,-0.06951646507
0.162,-1.54011333,-0.424875021,5.867843628,0.03035127558,-0.3666936755,-0.0697433576
0.164,-1.604775906,-0.4366066158,5.799321651,0.03562216833,-0.3680201173,-0.07016223669
0.166,-1.696282387,-0.4529063404,5.725656509,0.0412421301,-0.3701319695,-0.0700051561
0.168,-1.793563485,-0.4673960507,5.665964127,0.04604178667,-0.3725754321,-0.06869615614
0.17,-1.877303123,-0.4793862402,5.596944332,0.05021312088,-0.3745127618,-0.06719517708
0.172,-1.964337111,-0.4844044447,5.515580177,0.0550651364,-0.3765547872,-0.06597344577
0.174,-2.049848318,-0.4790414572,5.443390369,0.0595680885,-0.379609108,-0.06452482194
0.176,-2.130705357,-0.4760822058,5.373450756,0.06330309063,-0.3827332556,-0.06265731901
0.178,-2.214473963,-0.4690336883,5.29407835,0.06670648605,-0.3852814436,-0.06127851084
0.18,-2.281319857,-0.4660170078,5.221495152,0.06967354566,-0.3881961405,-0.06072000414
0.182,-2.333905935,-0.460644424,5.145713806,0.07278022915,-0.3912853599,-0.05984733999
0.184,-2.384778023,-0.4546588957,5.068802834,0.07562511414,-0.3947585821,-0.05824163556
0.186,-2.435946941,-0.4248846173,5.007300377,0.0777195096,-0.3996454775,-0.05663593486
0.188,-2.493101358,-0.4029154181,4.955834389,0.07951720059,-0.4057366848,-0.0544019118
0.19,-2.549681187,-0.373524189,4.915755749,0.08025024086,-0.4107283354,-0.05192354321
0.192,-2.603531599,-0.3367683887,4.891315937,0.07991862297,-0.4156152606,-0.04996877536
0.194,-2.638678551,-0.3035368919,4.875246048,0.08073893189,-0.4220206141,-0.04694935679
0.196,-2.656538963,-0.2726804316,4.857806683,0.08232717961,-0.4274660349,-0.04384266958
0.198,-2.696895838,-0.2442851812,4.837934494,0.08328711241,-0.4318817258,-0.04162610322
0.2,-2.740058661,-0.2129019946,4.851504803,0.08306021988,-0.4371700585,-0.03946189582
0.202,-2.753753424,-0.1695765257,4.859348297,0.08201301843,-0.442458421,-0.03731513768
0.204,-2.752288103,-0.1363162696,4.858562946,0.08157669008,-0.4465250373,-0.03516838327
0.206,-2.751876116,-0.1189152077,4.877601624,0.08108799905,-0.4491081238,-0.03366740048
0.208,-2.765963793,-0.08782889694,4.91838932,0.08026769012,-0.4514293969,-0.03179989755
0.21,-2.748878717,-0.05941450968,4.959866524,0.08025024086,-0.4552167654,-0.02946115844
0.212,-2.71097374,-0.05235640332,5.000452995,0.08023278415,-0.4589692354,-0.02755874954
0.214,-2.664698601,-0.06491159648,5.033445358,0.08054694533,-0.4611334503,-0.02584832534
0.216,-2.621334791,-0.07350198925,5.0727005,0.08129743487,-0.4639085233,-0.02419026382
0.218,-2.561383963,-0.08034940809,5.114062309,0.08255407214,-0.4681845605,-0.02193878777
0.22,-2.515865564,-0.07653784007,5.154477119,0.0846484676,-0.4730889499,-0.01946042106
0.222,-2.454583406,-0.09075939655,5.188780785,0.0870744735,-0.4779235125,-0.01748819835
0.224,-2.385879278,-0.1023473367,5.2177701,0.08964011073,-0.4833689332,-0.01542871073
0.226,-2.312597752,-0.1198250055,5.245379925,0.09258971363,-0.4890412688,-0.01302015595
0.228,-2.244822741,-0.1330505759,5.278783798,0.09599310905,-0.4935791194,-0.01076868176
0.23,-2.170104504,-0.1388636976,5.30672884,0.09958848357,-0.4982565939,-0.008272860199
0.232,-2.097454786,-0.1363832951,5.334501266,0.1032536775,-0.5030038953,-0.005358160939
0.234,-2.032322884,-0.1344775259,5.351318359,0.1069712266,-0.5074544549,-0.00260054064
0.236,-1.971845388,-0.1209838018,5.349364758,0.1106887832,-0.5130569935,-0.0005235987483
0.238,-1.935233235,-0.1250252128,5.329550266,0.1140921712,-0.5203873515,0.002181661548
0.24,-1.913924813,-0.1249677539,5.299316406,0.1176875532,-0.528747499,0.005829399452
0.242,-1.887694001,-0.1222096309,5.254248142,0.121981062,-0.5375090241,0.009197885171
0.244,-1.884294152,-0.1166263521,5.190207958,0.1259429604,-0.5467593074,0.01183333248
0.246,-1.898046494,-0.1142321527,5.145187378,0.1285085976,-0.5568298697,0.01385791413
0.248,-1.927485585,-0.1194802374,5.117835999,0.1311265826,-0.5675635934,0.01562069636
0.25,-1.952232003,-0.1284345537,5.075257301,0.1334653348,-0.5785592198,0.01729621366
0.252,-1.977658391,-0.1389115751,5.03428793,0.1347219646,-0.5890311599,0.01891936921
0.254,-1.997990012,-0.1634760946,4.996296883,0.1352281123,-0.5986653566,0.02083923109
0.256,-2.042139053,-0.1917468309,4.962902546,0.1348092258,-0.6085788608,0.02415535599
0.258,-2.102338791,-0.2155739069,4.937629223,0.134006381,-0.6176720262,0.02802998759
0.26,-2.151659489,-0.2444479913,4.917221069,0.1324181259,-0.6267302632,0.03150319308
0.262,-2.206342936,-0.2661394775,4.881595135,0.1295732409,-0.6367310286,0.03480186686
0.264,-2.274980068,-0.2720483541,4.85828495,0.1261873096,-0.6468015909,0.0386764966
0.266,-2.337631702,-0.2851494253,4.83331871,0.1210385859,-0.6562612653,0.04277801886
0.268,-2.362722635,-0.2956647575,4.815515041,0.1148252115,-0.6635916233,0.04633849114
0.27,-2.417080879,-0.3102789521,4.77040863,0.1094670519,-0.6684610844,0.05031784251
0.272,-2.428055763,-0.3083061576,4.723252296,0.1025380939,-0.6717073917,0.05476843193
0.274,-2.470586538,-0.3184767067,4.680893898,0.09499827027,-0.6746221185,0.05880014226
0.276,-2.502707005,-0.3319225609,4.670896053,0.08717919886,-0.6780080795,0.06232570857
0.278,-2.573527336,-0.353690654,4.661539555,0.07864453644,-0.680957675,0.06534512341
0.28,-2.665972471,-0.3806205988,4.640202045,0.07073819637,-0.6837502122,0.0678409487
0.282,-2.723586321,-0.4009330273,4.632742405,0.06311110407,-0.6861413121,0.07073819637
0.284,-2.767074823,-0.4053575099,4.634140015,0.05527457595,-0.6871186495,0.07349581271
0.286,-2.781343937,-0.4109311998,4.629284859,0.04766494036,-0.6875026226,0.07525859773
0.288,-2.800899982,-0.4182287157,4.629734993,0.04108504951,-0.6870488524,0.07660250366
0.29,-2.819210768,-0.406401366,4.653676987,0.03525565192,-0.6858969331,0.07873180509
0.292,-2.813809633,-0.3982419372,4.663799763,0.03003711626,-0.6854431629,0.08054694533
0.294,-2.807939053,-0.3834936619,4.678011894,0.0257086996,-0.6858794689,0.08096582443
0.296,-2.806138515,-0.3782455623,4.684811115,0.02237512171,-0.6866998076,0.08114035428
0.298,-2.816759109,-0.3582875133,4.684035301,0.01942551509,-0.6873455644,0.08121016622
0.3,-2.806627035,-0.3186682463,4.683690548,0.01761037298,-0.6882357001,0.08154178411
0.302,-2.79171586,-0.3044945598,4.687042713,0.01623156108,-0.6886022091,0.08232717961
0.304,-2.758484364,-0.2662926912,4.701024532,0.01535889693,-0.6893701553,0.0832696557
0.306,-2.717916965,-0.2231683284,4.726862907,0.01626646891,-0.6925292015,0.08459610492
0.308,-2.672053814,-0.1825339347,4.775139809,0.01694714651,-0.6976081133,0.085765481
0.31,-2.584770441,-0.1022994518,4.86562109,0.01816887781,-0.7037690878,0.08656833321
0.312,-2.555848598,-0.07618349791,4.899446487,0.02118829638,-0.7103838921,0.0875108093
0.314,-2.498598337,-0.02254380286,4.961753368,0.02494075522,-0.7181331515,0.08791223168
0.316,-2.415921926,0.04225287214,5.012529373,0.02900737152,-0.7266503572,0.08744099736
0.318,-2.334403992,0.1007863134,5.062711716,0.03317870945,-0.735481739,0.08693484962
0.32,-2.201583385,0.181116581,5.147150517,0.03771656379,-0.7453952432,0.08607963473
0.322,-2.157625675,0.2079507858,5.177393913,0.04146902263,-0.7576299906,0.08449138701
0.324,-2.054177284,0.2584109902,5.233638763,0.04455825686,-0.772395432,0.08288568258
0.326,-1.946112394,0.292083025,5.281656742,0.04803146049,-0.788819015,0.08192575723
0.328,-1.850449681,0.3171646595,5.326897621,0.05166174471,-0.8062373996,0.08026769012
0.33,-1.685259342,0.3455982506,5.37664938,0.05597271025,-0.8240746856,0.07737044245
0.332,-1.63915658,0.3556347489,5.395439148,0.06024876609,-0.8414232135,0.07494443655
0.334,-1.51360476,0.3675865829,5.451654911,0.06389650702,-0.8582656384,0.07332128286
0.336,-1.465385556,0.362750262,5.471833229,0.0675791502,-0.8758586049,0.07265805453
0.338,-1.389048815,0.3367109299,5.495746613,0.07129669935,-0.8937482238,0.07239625603
0.34,-1.297868013,0.3003956974,5.549424171,0.07438593358,-0.9114458561,0.07195992768
0.342,-1.267547846,0.2666566074,5.579907417,0.07658504695,-0.9284453392,0.07178539038
0.344,-1.230715513,0.2127008885,5.616289616,0.07780677825,-0.943559885,0.07171557844
0.346,-1.212414145,0.1823424101,5.636946678,0.07860963047,-0.9572956562,0.07201228291
0.348,-1.193624496,0.1303595006,5.689906597,0.07894124091,-0.9695129395,0.07211700082
0.35,-1.17118609,0.07265923172,5.740912437,0.07812093943,-0.9808052182,0.07185520232
0.352,-1.145912886,-0.009672574699,5.806044579,0.07716100663,-0.9917135239,0.07080800831
0.354,-1.135608196,-0.06449979544,5.839601517,0.07677703351,-1.000876546,0.06942919642
0.356,-1.128032923,-0.09051039815,5.856226921,0.07660250366,-1.009672999,0.06949900836
0.358,-1.111235261,-0.1523957253,5.896018505,0.0762359798,-1.017666578,0.07016223669
0.36,-1.090721726,-0.2366811931,5.933665276,0.07576474547,-1.022815347,0.07073819637
0.362,-1.087149501,-0.2630653083,5.945942402,0.07620107383,-1.027108788,0.07192502171
0.364,-1.085693836,-0.3445735276,5.98724699,0.07731808722,-1.032013178,0.07429866493
0.366,-1.083146453,-0.3638612032,6.003135204,0.07936012,-1.036550999,0.07716100663
0.368,-1.09022367,-0.419598192,6.025860786,0.08271115273,-1.040286064,0.07990117371
0.37,-1.099197149,-0.4534043372,6.030055523,0.08691739291,-1.042746902,0.082920596
0.372,-1.10425365,-0.4682292342,6.030946255,0.09147270769,-1.042799354,0.0860272795
0.374,-1.119605303,-0.4844523668,6.025516033,0.09585348517,-1.040931821,0.09014625847
0.376,-1.162557244,-0.5145522356,6.012673855,0.1007927656,-1.037964702,0.09529497474
0.378,-1.206955433,-0.5160557628,5.999917507,0.1050164625,-1.033601403,0.09990264475
0.38,-1.235733628,-0.5192257166,5.995732307,0.1083151326,-1.028976321,0.1043183282
0.382,-1.281616211,-0.5167549253,5.961025715,0.1118581519,-1.024578094,0.1099033803
0.384,-1.30108583,-0.5030026436,5.93346405,0.1155058891,-1.01899302,0.1153313592
0.386,-1.308498263,-0.485955894,5.916944027,0.1192059889,-1.011680126,0.1200611964
0.388,-1.321197152,-0.4476199746,5.88885498,0.1222952232,-1.003319979,0.1260825843
0.39,-1.345886111,-0.380984515,5.868724823,0.1248084977,-0.994558394,0.132959187
0.392,-1.369559884,-0.3211199045,5.848843098,0.1267807186,-0.9856223464,0.1385965943
0.394,-1.372701168,-0.2766739428,5.839659214,0.1294859797,-0.9769480228,0.1434137076
0.396,-1.369914293,-0.2599624395,5.837676525,0.1334129721,-0.9683610201,0.148230806
0.398,-1.384691238,-0.2173168957,5.828808784,0.1372352391,-0.9607514143,0.1523846984
0.4,-1.401987076,-0.1550293416,5.829172134,0.1403593719,-0.9551488757,0.1556659192
0.402,-1.41037631,-0.07311891764,5.830886841,0.1438500434,-0.9509600997,0.1582490057
0.404,-1.431244135,-0.03515645489,5.827046394,0.1477944851,-0.9470505714,0.1602561325
0.406,-1.443559885,-0.01900996268,5.834219456,0.1512851417,-0.943559885,0.1613906026
0.408,-1.451163888,0.02590526268,5.844801903,0.1549154222,-0.9408895373,0.1618443877
0.41,-1.453960299,0.08373960108,5.840549946,0.1586155146,-0.9385333657,0.1620363742
0.412,-1.43403101,0.1542440504,5.825667381,0.1613731384,-0.9372592568,0.161792025
0.414,-1.418928504,0.1901091933,5.818244934,0.1631359309,-0.9370498061,0.1617047489
0.416,-1.405214429,0.2262041718,5.807193756,0.1647939831,-0.937276721,0.1619840115
0.418,-1.393396616,0.2444958836,5.800116062,0.166731298,-0.938323915,0.162088722
0.42,-1.371341348,0.2639080584,5.794686317,0.1691049486,-0.9393885732,0.1611811519
0.422,-1.35369122,0.2804184854,5.798469067,0.1716356725,-0.9391791224,0.1595579982
0.424,-1.327412486,0.2769708335,5.807356358,0.1745678335,-0.9387776852,0.1576381326
0.426,-1.292074084,0.2792596817,5.814069748,0.1792278588,-0.9398772717,0.1552644968
0.428,-1.267212629,0.2494662404,5.822966576,0.1852317899,-0.9419018626,0.1524195969
0.43,-1.223705173,0.2244133204,5.843556404,0.1911484599,-0.9443103671,0.1493652761
0.432,-1.163179755,0.1973588467,5.872919559,0.1973443776,-0.9475043416,0.1471661627
0.434,-1.136680841,0.1864987314,5.88352108,0.2049190998,-0.9510124326,0.1443910897
0.436,-1.108429193,0.1394383013,5.908401489,0.2133664936,-0.9546427131,0.1404117346
0.438,-1.073320627,0.1030943245,5.926012993,0.2218488008,-0.95801121,0.1365894675
0.44,-1.031297565,0.07830955088,5.940282822,0.2306801677,-0.9597042203,0.1328195482
0.442,-1.001408339,0.03958094493,5.934794903,0.2396337092,-0.9604023099,0.1284387857
0.444,-0.9785581231,-0.008916007355,5.920439243,0.2483254522,-0.9606815577,0.1231853366
0.446,-0.9702550173,-0.05250005424,5.899399281,0.2569124699,-0.960786283,0.117896989
0.448,-0.9470695853,-0.08784804493,5.867805004,0.2657787502,-0.9617811441,0.113219507
0.45,-0.9238841534,-0.1184746772,5.849590302,0.2753780484,-0.9631250501,0.1087863743
0.452,-0.9061478972,-0.1304935813,5.836000443,0.2846632004,-0.9639977217,0.1047721133
0.454,-0.8934873939,-0.1433456391,5.83330965,0.2934945524,-0.9637184739,0.1015607119
0.456,-0.8735388517,-0.1441692561,5.823531628,0.3030764163,-0.961397171,0.09899507463
0.458,-0.8655326366,-0.1361055821,5.820131779,0.3123441339,-0.9582381248,0.09667378664
0.46,-0.8386218548,-0.1191450506,5.814395428,0.3205471635,-0.9550616145,0.09478883445
0.462,-0.8152065277,-0.06735368073,5.803698063,0.3276681006,-0.9499827027,0.09402088821
0.464,-0.80815804,-0.05156152695,5.799484253,0.3327644765,-0.9419192672,0.09529497474
0.466,-0.7913123965,-0.0108888289,5.793997288,0.3364296556,-0.9320058227,0.09770353138
0.468,-0.7578223348,0.02893153392,5.795500278,0.3388556838,-0.9216560125,0.1005658731
0.47,-0.728641808,0.07860642672,5.796534538,0.3389080465,-0.91113168,0.1042659655
0.472,-0.7399998903,0.1166838184,5.79500246,0.3373546898,-0.9002233744,0.1076693609
0.474,-0.7139605284,0.1388732791,5.79214859,0.3357664347,-0.889472127,0.1103048101
0.476,-0.6676853895,0.1885577589,5.787647247,0.3344923556,-0.8781449795,0.1113869101
0.478,-0.653234005,0.2357522547,5.787762165,0.3339687586,-0.8659625649,0.1121374071
0.48,-0.6264285445,0.2880607545,5.787905693,0.3340734839,-0.8537452817,0.1130798832
0.482,-0.5917029977,0.3334644139,5.784390926,0.3341258168,-0.8411963582,0.1131496951
0.484,-0.547324121,0.3726239502,5.791956902,0.334143281,-0.8294502497,0.1134987622
0.486,-0.4841842055,0.4093797505,5.812623501,0.33257249,-0.8196240664,0.1152091846
0.488,-0.4115345478,0.444555372,5.831710339,0.3287676573,-0.8127823472,0.1174781099
0.49,-0.3346423507,0.4834850729,5.853315353,0.3240727484,-0.8084190488,0.1203055456
0.492,-0.2406938821,0.5167261958,5.872660637,0.3183655143,-0.8053821921,0.1236565784
0.494,-0.1613883525,0.5347976089,5.887265205,0.3116285503,-0.8022580147,0.1262920201
0.496,-0.09532754123,0.5418748856,5.912653446,0.3041410744,-0.7987673879,0.1283166111
0.498,-0.02412397601,0.5405724645,5.931653976,0.2957285941,-0.7951371074,0.1300793886
0.5,0.03077028133,0.5348933935,5.957042217,0.2869495749,-0.7920827866,0.1320690662
0.502,0.08841307461,0.5258049965,5.983167648,0.2779960334,-0.790843606,0.1335002333
0.504,0.129804045,0.5164197683,6.009244919,0.269950062,-0.7909657359,0.1350361258
0.506,0.1696531326,0.4856303036,6.044267654,0.2631956637,-0.7913323045,0.1372352391
0.508,0.206973955,0.4530020952,6.089498997,0.2566506565,-0.7914893627,0.1400277615
0.51,0.2261467129,0.4409162104,6.122892857,0.2508387268,-0.7924842238,0.1433613449
0.512,0.2388838679,0.4264647961,6.150129318,0.2468942702,-0.7954338193,0.1459967941
0.514,0.2367386669,0.420086652,6.179673672,0.2449744195,-0.8010362983,0.1483180821
0.516,0.2398128211,0.400664866,6.19709444,0.2448173314,-0.8090124726,0.1499063224
0.518,0.2341816574,0.3749415576,6.202399731,0.2466499358,-0.8201476932,0.1495921761
0.52,0.2129211426,0.3625204563,6.221457481,0.2502453029,-0.8332027197,0.1478991956
0.522,0.1868722439,0.3588333726,6.240065575,0.2567553818,-0.8463973999,0.1459444314
0.524,0.1791054308,0.368774116,6.262906075,0.266651392,-0.8618785143,0.1438849419
0.526,0.1864891648,0.3984143138,6.272233963,0.2779611349,-0.8801695108,0.1411447823
0.528,0.1824860573,0.4356202185,6.277386189,0.2904402316,-0.8996124864,0.1372003257
0.53,0.1716834158,0.48463431,6.256010532,0.3040538132,-0.9191951156,0.1327497363
0.532,0.1783776134,0.5345103145,6.230095863,0.318417877,-0.9394932985,0.1290496439
0.534,0.174115926,0.5668703318,6.196481228,0.3334276974,-0.9606815577,0.126588732
0.536,0.1668184102,0.6187383533,6.171572208,0.3474252522,-0.9803689122,0.125908047
0.538,0.1712524593,0.6725504398,6.151249886,0.3594331145,-0.9984679818,0.1256287992
0.54,0.1777359545,0.7157992721,6.126407623,0.3690673113,-1.013739586,0.1251924634
0.542,0.1867668927,0.7624382973,6.119847775,0.3786666393,-1.027841806,0.1247037724
0.544,0.1878394932,0.7957464457,6.131617546,0.3885626495,-1.04241538,0.1241976321
0.546,0.1944283247,0.8082442284,6.136023045,0.3970100582,-1.054353356,0.1233598739
0.548,0.2138692439,0.8048731685,6.144048214,0.4032932222,-1.062364459,0.1223824844
0.55,0.2518891692,0.8106575608,6.16080761,0.4086863101,-1.067198992,0.1216669008
0.552,0.3064195216,0.8035324216,6.19244957,0.4153185487,-1.069799542,0.120741874
0.554,0.3173274696,0.804739058,6.208193779,0.4211654067,-1.069921732,0.1194328815
0.556,0.3386263251,0.8153023124,6.233744621,0.4244815111,-1.069014192,0.1182635128
0.558,0.3915860653,0.8127835989,6.255282879,0.4261570275,-1.067705154,0.1177748144
0.56,0.4729984701,0.7961007953,6.26563549,0.4271518886,-1.064633369,0.1175828278
0.562,0.5523710251,0.7783550024,6.283381462,0.4240801036,-1.058350205,0.1171988621
0.564,0.6116323471,0.7534840107,6.326821804,0.416836977,-1.049780607,0.1170243248
0.566,0.7521623969,0.7598334551,6.353914738,0.4088433683,-1.040303469,0.1172861233
0.568,0.8294568062,0.7752329111,6.378392696,0.4021064043,-1.031070709,0.1180191636
0.57,0.8900971413,0.771258533,6.450353146,0.3959104717,-1.021331787,0.1195725054
0.572,0.9760968685,0.6987333894,6.513578892,0.3861191869,-1.007892728,0.1214749143
0.574,1.06121552,0.6245036125,6.585701466,0.3736051917,-0.9929527044,0.1241452694
0.576,1.140042186,0.5532425642,6.663982868,0.3612482548,-0.9789726138,0.1277581006
0.578,1.216972828,0.4900164902,6.760382652,0.3508635461,-0.9666506052,0.1311091334
0.58,1.287975192,0.4163229465,6.853478909,0.3428524733,-0.9556550384,0.1334304214
0.582,1.342639565,0.329413414,6.944956779,0.3348414302,-0.9442231059,0.1375319511
0.584,1.38677907,0.2400235087,7.029979706,0.3271794319,-0.934204936,0.1426632106
0.586,1.458212495,0.1553262323,7.104908466,0.3218387067,-0.9276075959,0.1460316926
0.588,1.523162365,0.09067320824,7.171285152,0.3184004128,-0.9242914915,0.150552094
0.59,1.580010414,0.03155557811,7.254508018,0.313845098,-0.9223017693,0.1571145356
0.592,1.634933352,-0.006780379452,7.347412586,0.3088360131,-0.9211847782,0.1642180234
0.594,1.677090406,-0.04841075838,7.429638863,0.305537343,-0.9226159453,0.171530962
0.596,1.717245936,-0.08975382894,7.505372047,0.3032509685,-0.9266651273,0.1792278588
0.598,1.775607109,-0.1070399731,7.577523708,0.3019943237,-0.9324247241,0.1864709705
0.6,1.813377976,-0.1202846915,7.636133671,0.3030764163,-0.9395107627,0.192579627
0.602,1.849176049,-0.1161092073,7.687877655,0.3066543341,-0.9474345446,0.1988453567
0.604,1.883001328,-0.09906249493,7.729785442,0.3119077981,-0.9560390115,0.2055125237
0.606,1.910659194,-0.06025726721,7.774614811,0.3175277412,-0.9642595053,0.2110626698
0.608,1.936679363,-0.03011905588,7.810049057,0.3239156604,-0.9739286304,0.2171014994
0.61,1.961473584,0.005640739575,7.839344025,0.3331309855,-0.9873327613,0.2246238738
0.612,1.959663749,0.05813121796,7.873351574,0.3466747403,-1.00510025,0.2333505154
0.614,1.962948442,0.1232918054,7.893903255,0.3619812727,-1.024002075,0.24291493
0.616,1.99775064,0.2097320706,7.874213219,0.3745127618,-1.038017154,0.2499486059
0.618,1.994494557,0.3251134455,7.87220192,0.3862413764,-1.049396634,0.2559874356
0.62,2.007250786,0.4229022264,7.877804756,0.3989124596,-1.061613917,0.2631607354
0.622,2.022401333,0.5225872397,7.879097462,0.4113217294,-1.073848724,0.2692519426
0.624,2.038997889,0.6243886948,7.879739285,0.4258603454,-1.085769296,0.2742435932
0.626,2.053008795,0.7207217216,7.915518284,0.4421791732,-1.095351219,0.2781705856
0.628,2.072832823,0.8153597116,7.962166786,0.4582885504,-1.100517392,0.2797762752
0.63,2.084324837,0.8947418928,8.009725571,0.4740139842,-1.10261178,0.2801078856
0.632,2.103555202,0.9694601297,8.056221008,0.4864058197,-1.102838635,0.2802475095
0.634,2.121588469,1.025484443,8.100838661,0.4993386865,-1.100098491,0.2790432274
0.636,2.141517639,1.029688716,8.147382736,0.5140692592,-1.095822453,0.2763379812
0.638,2.184622765,1.012642026,8.206701279,0.5251172185,-1.091546416,0.2742959559
0.64,2.210911036,1.001408339,8.2742939,0.5349783301,-1.085088611,0.2731440365
0.642,2.230342627,0.9566176534,8.330844879,0.5459389687,-1.075192571,0.2717303038
0.644,2.250741243,0.9188275933,8.380558968,0.5560793281,-1.059170485,0.2708401978
0.646,2.287113667,0.8676395416,8.421977997,0.5630606413,-1.04253757,0.2707878351
0.648,2.319598436,0.8186062574,8.448717117,0.5652597547,-1.029150844,0.271084547
0.65,2.350857258,0.7667957544,8.47400856,0.5633224845,-1.01454246,0.2712067068
0.652,2.398032427,0.7084251046,8.492012978,0.5577898026,-0.9975429177,0.2722015381
0.654,2.434338093,0.6491543055,8.514432907,0.547021091,-0.9720087647,0.2741912305
0.656,2.461833,0.5735358,8.540576935,0.5350655913,-0.9461429715,0.2756223977
0.658,2.475441694,0.4908017516,8.564135551,0.5232496858,-0.9245707393,0.2774724364
0.66,2.483476877,0.4105960131,8.614797592,0.5080304146,-0.9003280997,0.2801253498
0.662,2.478314638,0.3049159646,8.677555084,0.4904549718,-0.8749859333,0.2827782333
0.664,2.490803003,0.1662629396,8.76188755,0.4681671262,-0.8460483551,0.2863910794
0.666,2.482317924,0.04052904621,8.849448204,0.4464552104,-0.8200603724,0.2900562584
0.668,2.471812248,-0.08343314379,8.925209999,0.4275183976,-0.7993956804,0.2928138971
0.67,2.470595837,-0.2050106972,9.016918182,0.4065569937,-0.7789753675,0.2952049971
0.672,2.459937096,-0.314406544,9.116000175,0.3854036033,-0.7596196532,0.2971248627
0.674,2.45337677,-0.4209198058,9.204967499,0.3600614369,-0.7372270823,0.299166888
0.676,2.447305202,-0.5261880755,9.286179543,0.3355395496,-0.7164402008,0.3006329536
0.678,2.424311161,-0.6024385691,9.370904922,0.3157824278,-0.7003831863,0.3015405238
0.68,2.405464172,-0.6620159149,9.441619873,0.2944719493,-0.6828076839,0.3015928864
0.682,2.396519184,-0.6867815256,9.500240326,0.2725506127,-0.6649355292,0.3003537059
0.684,2.387584209,-0.7112981677,9.576031685,0.2481509149,-0.6469237208,0.298276782
0.686,2.384069443,-0.7026885748,9.64935112,0.2259154171,-0.6307445168,0.2961649299
0.688,2.391597033,-0.6493840814,9.718255997,0.2080257982,-0.617218256,0.2930931449
0.69,2.417454004,-0.5942504406,9.796642303,0.1896998286,-0.6031857729,0.2886949182
0.692,2.436014175,-0.5151460171,9.866093636,0.1727701426,-0.590532124,0.2837381661
0.694,2.461861849,-0.3919212222,9.936348915,0.157673046,-0.5790653229,0.2776295245
0.696,2.513222218,-0.2720962167,9.995820999,0.1442514658,-0.5680872202,0.2707180083
0.698,2.552027702,-0.1368621588,10.05745697,0.1331162602,-0.5579468608,0.2628465891
0.7,2.589415312,0.005535394419,10.13539314,0.1251226515,-0.5471781492,0.2542770207
0.702,2.668117523,0.1529415995,10.20790958,0.1193281636,-0.534594357,0.2457423508
0.704,2.745517254,0.2997636497,10.26979351,0.11508701,-0.5203175545,0.2353227437
0.706,2.797825575,0.4670129716,10.34348774,0.1130449772,-0.5078733563,0.2250951082
0.708,2.860707045,0.6244364977,10.39584351,0.1125213802,-0.4965112507,0.2168222517
0.71,2.938241005,0.760628283,10.42446899,0.1113694608,-0.4820948541,0.208078146
0.712,3.006676674,0.8891490698,10.44425488,0.1093099713,-0.4642226696,0.1982170492
0.714,3.062864065,1.009864688,10.45755672,0.1072155759,-0.4386535883,0.185685575
0.716,3.110824347,1.105508327,10.46269989,0.10478957,-0.4124562144,0.1739395112
0.718,3.151142836,1.167843699,10.46545792,0.1022239327,-0.3898018301,0.1644449234
0.72,3.17146492,1.212471724,10.46883869,0.09864600748,-0.3641629517,0.1539380401
0.722,3.174787998,1.235714436,10.47137642,0.09529497474,-0.3360456824,0.1430297345
0.724,3.169645309,1.244371891,10.48420906,0.0923628211,-0.3022037446,0.1313360184
0.726,3.160796404,1.239411116,10.5062933,0.08895943314,-0.2707354724,0.1208989546
0.728,3.152723074,1.207022429,10.54765511,0.08599237353,-0.2440493852,0.1112821922
0.73,3.147838831,1.167661786,10.60480118,0.08382816613,-0.2145533264,0.1013687253
0.732,3.135906219,1.109559178,10.68763924,0.0816988647,-0.1842544079,0.0922755599
0.734,3.150798082,1.025800586,10.79558945,0.07956956327,-0.1551772207,0.08258897811
0.736,3.173274994,0.9033227563,10.91361427,0.07775441557,-0.1275661141,0.072954759
0.738,3.184891701,0.7771099806,11.06171036,0.07574728876,-0.0992917791,0.06304129213
0.74,3.194765329,0.6352200508,11.23243523,0.07367035002,-0.07103490084,0.052377332
0.742,3.224740744,0.4868274033,11.38926601,0.07124433666,-0.04375540465,0.04173082113
0.744,3.231559277,0.3332345486,11.53804111,0.06773623079,-0.01687733456,0.03075270168
0.746,3.235773087,0.1989198625,11.6796627,0.06346017122,0.009197885171,0.02029817924
0.748,3.243281603,0.04467580467,11.80967808,0.05920156837,0.03370230645,0.01130973361
0.75,3.247591019,-0.1072889641,11.89297676,0.05462880433,0.05630432069,0.003857177682
0.752,3.256707907,-0.2497343868,11.9793787,0.04928809777,0.07656759769,-0.003263765713
0.754,3.279931784,-0.349955678,12.0654068,0.0439648442,0.09679596126,-0.0124791041
0.756,3.31047225,-0.4354861379,12.15535259,0.03926990926,0.1157676876,-0.02158972248
0.758,3.337095737,-0.4988079965,12.24522209,0.03483677283,0.1294859797,-0.02815216035
0.76,3.362704039,-0.5332270265,12.35421467,0.030176742,0.140743345,-0.03364994749
0.762,3.386751413,-0.5565178394,12.47779369,0.02450442314,0.1532224566,-0.03874630854
0.764,3.415663719,-0.5661041737,12.59627819,0.01809906401,0.1661902517,-0.04270820692
0.766,3.42683053,-0.5683834553,12.72696304,0.01106538717,0.1774650812,-0.0455705449
0.768,3.4241395,-0.5642367601,12.86333656,0.003141592722,0.1868025959,-0.04832816496
0.77,3.41892004,-0.5498811007,12.99418449,-0.005096361507,0.1950056404,-0.05038765445
0.772,3.441368103,-0.5196566582,13.12795448,-0.01509709843,0.2018298805,-0.05122541264
0.774,3.491598368,-0.4947378635,13.2379818,-0.02642428502,0.2074498385,-0.05157447979
0.776,3.540823221,-0.4477061331,13.3179388,-0.03735004738,0.2119353265,-0.05202826485
0.778,3.600342989,-0.3984047472,13.38130856,-0.04811872914,0.2147103995,-0.05222025141
0.78,3.671374321,-0.337074846,13.44010067,-0.05817182362,0.2161590308,-0.05103342608
0.782,3.727791309,-0.27260378,13.48621273,-0.0673173517,0.2158099562,-0.04991641641
0.784,3.782417297,-0.2010842115,13.54335785,-0.07546803355,0.2147103995,-0.04914847016
0.786,3.83597064,-0.1242399141,13.59301281,-0.08319984376,0.2139424533,-0.04693190381
0.788,3.865294933,-0.06064033881,13.62963486,-0.09044296294,0.2129999846,-0.04413937777
0.79,3.905862331,-0.004367024172,13.64902878,-0.09717993438,0.2104168981,-0.04174827412
0.792,3.913629055,0.04288494214,13.67607307,-0.1030791476,0.2071531266,-0.04045673087
0.794,3.905833483,0.07727525383,13.72132301,-0.1073726565,0.2036101073,-0.03993313387
0.796,3.896898508,0.1307329834,13.75443935,-0.1113345549,0.1987057328,-0.0400203988
0.798,3.881336212,0.1771804988,13.78368759,-0.1154709831,0.1935395598,-0.04038691893
0.8,3.85214591,0.226347819,13.80994701,-0.1190489084,0.1873436421,-0.04084070399
0.802,3.832848787,0.2647700012,13.81901646,-0.121457465,0.1800830662,-0.04228932783
0.804,3.796734571,0.293146044,13.81069469,-0.123063162,0.1733461022,-0.04415683076
0.806,3.745345354,0.3309074044,13.80417156,-0.1243547052,0.1674468815,-0.0467922762
0.808,3.709528208,0.344496876,13.80033207,-0.1242499873,0.161565125,-0.05009094998
0.81,3.643496037,0.3674716353,13.79363728,-0.121981062,0.1553866565,-0.05394812673
0.812,3.567054033,0.3836373091,13.79221058,-0.1188569218,0.1490860283,-0.05899212882
0.814,3.490592718,0.4069185257,13.81365299,-0.1160120368,0.1424188614,-0.06452482194
0.816,3.414188862,0.451536864,13.85694027,-0.1126435474,0.1355946362,-0.06960373372
0.818,3.32950139,0.4827668369,13.91087723,-0.1084198505,0.1290321946,-0.07452555746
0.82,3.251622915,0.5086241961,13.9627552,-0.1041961536,0.121946156,-0.07967428118
0.822,3.196843624,0.5357936621,14.04523945,-0.1005658731,0.1149473861,-0.08429940045
0.824,3.1372087,0.5316277146,14.13635349,-0.09847147763,0.1083151326,-0.08902924508
0.826,3.072000265,0.523573637,14.237216,-0.09728465229,0.1027824357,-0.09314822406
0.828,3.004828453,0.4740615189,14.34967709,-0.09618509561,0.09831439704,-0.09609782696
0.83,2.942598343,0.4347487092,14.45865154,-0.09510298818,0.09302604944,-0.09918706119
0.832,2.890931368,0.3874488771,14.56672573,-0.09498082101,0.08929104358,-0.1020319462
0.834,2.855679274,0.3478009105,14.67291355,-0.09681341052,0.08714429289,-0.1057145894
0.836,2.858389378,0.3283216655,14.7768116,-0.09883799404,0.08564330637,-0.1091005281
0.838,2.874181747,0.3345465958,14.89242268,-0.09997245669,0.086289078,-0.1101651788
0.84,2.89503026,0.3622044027,15.01653767,-0.1010545641,0.08717919886,-0.1106015146
0.842,2.922899008,0.4034613073,15.13859463,-0.1021366641,0.08785987645,-0.1110902056
0.844,2.971050978,0.4739561677,15.26425171,-0.1028871611,0.08908160776,-0.1109854877
0.846,3.041335106,0.5508579016,15.40091324,-0.1025729999,0.08990190923,-0.1099906489
0.848,3.127737284,0.6101096272,15.53927898,-0.1011767387,0.09117600322,-0.1080009714
0.85,3.208527088,0.6827976108,15.68977833,-0.09965830296,0.09327039123,-0.1056098714
0.852,3.307551384,0.7534840107,15.85362816,-0.09714502841,0.09477137774,-0.104004167
0.854,3.414112568,0.8252142668,16.00464439,-0.09485864639,0.09662142396,-0.1021017581
0.856,3.510608435,0.87735039,16.1475296,-0.09234537184,0.09864600748,-0.09878563881
0.858,3.591187716,0.9418981075,16.27690315,-0.08785987645,0.100112088,-0.09461429715
0.86,3.651301384,1.006273389,16.40712929,-0.08286823332,0.1019621342,-0.090373151
0.862,3.713512182,1.053965926,16.50216103,-0.07674212754,0.1036551073,-0.08581783623
0.864,3.840759277,1.13073349,16.52358437,-0.06920230389,0.104039073,-0.0814370662
0.866,3.933654308,1.209311247,16.53099632,-0.06201154739,0.1041961536,-0.07712610066
0.868,4.009703636,1.285944939,16.55635452,-0.05468116701,0.1045801267,-0.07222172618
0.87,4.055787563,1.369971752,16.58095741,-0.04569271952,0.1031489596,-0.0670555532
0.872,4.096048355,1.443713307,16.58795929,-0.03635520861,0.1009847522,-0.06180210784
0.874,4.132603168,1.509285688,16.58976746,-0.02750638872,0.09916960448,-0.05714207888
0.876,4.160078526,1.579962373,16.60336685,-0.01822123677,0.09653416276,-0.05335471407
0.878,4.181818008,1.659181714,16.61874771,-0.007819075137,0.09229300916,-0.04991641641
0.88,4.208058357,1.742059469,16.64438438,0.002722713631,0.08679522574,-0.04567526653
0.882,4.231607914,1.826632261,16.67636108,0.01268854365,0.08075638115,-0.04173082113
0.884,4.248884201,1.929745674,16.69702911,0.02244493365,0.07483971864,-0.03855432197
0.886,4.264686108,2.023789883,16.69561195,0.03176499158,0.06958627701,-0.03567453101
0.888,4.274205685,2.110507965,16.67754936,0.04061381146,0.06522295624,-0.03293436393
0.89,4.266678333,2.193423748,16.65590668,0.0489564836,0.06124360487,-0.03087487444
0.892,4.254237652,2.272068501,16.62294388,0.05518731102,0.05710717291,-0.02939134464
0.894,4.241577148,2.338148594,16.5827198,0.06056292355,0.05194099993,-0.02816961333
0.896,4.215978622,2.398760319,16.55419159,0.06558947265,0.04668755829,-0.02734931
0.898,4.190629005,2.474503279,16.55465126,0.06953391433,0.04265584797,-0.02576106042
0.9,4.164101124,2.544519186,16.56721497,0.07335618883,0.03848451003,-0.02384119667
0.902,4.115824223,2.605638504,16.56877518,0.07616616786,0.03459242731,-0.02117084339
0.904,4.063784122,2.641561031,16.56949425,0.07794640213,0.03110176697,-0.01755801216
0.906,4.009119511,2.656299829,16.57977867,0.07897614688,0.02684316412,-0.01481784508
0.908,3.969825983,2.634598732,16.58470345,0.07941248268,0.02289872058,-0.0124441972
0.91,3.926759005,2.622886181,16.58159065,0.08021533489,0.02003637888,-0.01022762898
0.912,3.925207615,2.591570139,16.60590363,0.08117526025,0.01665044017,-0.008360126987
0.914,3.931758165,2.539472103,16.66268539,0.08155923337,0.01338667516,-0.006667157635
0.916,3.960680008,2.466114044,16.73165894,0.08265879005,0.01111774705,-0.005654866807
0.918,4.009349346,2.405406475,16.81769753,0.08436921239,0.008918632753,-0.004607669078
0.92,4.067987919,2.34807992,16.92659378,0.08506734669,0.005497787148,-0.003560471581
0.922,4.126665115,2.294689178,17.01113892,0.08471827954,0.0009599310579,-0.002809980186
0.924,4.184758186,2.253594875,17.09134293,0.0839503333,-0.003089232836,-0.001570796361
0.926,4.261238098,2.212022305,17.13396072,0.08269369602,-0.006003932562,-0.0004188790335
0.928,4.352917671,2.200060844,17.13421822,0.08091346174,-0.007819075137,0.0006457717973
0.93,4.447191238,2.211323023,17.10954857,0.07892379165,-0.01076868176,0.002356194425
0.932,4.549031258,2.196000099,17.07432556,0.07655014098,-0.01481784508,0.004642575979
0.934,4.630951405,2.1936059,17.03876686,0.07335618883,-0.01834340952,0.007138396613
0.936,4.692692757,2.177536249,16.98720551,0.07049384713,-0.02073451132,0.009110618383
0.938,4.744675636,2.144476891,16.93069267,0.06869615614,-0.0226543732,0.0105417883
0.94,4.796131611,2.123369694,16.85968208,0.06763150543,-0.02343977243,0.01206022501
0.942,4.835205078,2.102032423,16.78346825,0.06658431143,-0.02312561311,0.01394518092
0.944,4.860708714,2.066856861,16.69112968,0.06489133835,-0.02457423508,0.01502728462
0.946,4.860200882,2.030148983,16.59869385,0.06230825558,-0.02611012571,0.015795229
0.948,4.835646152,1.996994019,16.50700569,0.05967280641,-0.02642428502,0.0173660256
0.95,4.79846859,1.990050912,16.42390823,0.05701990798,-0.0268606171,0.01958259381
0.952,4.755458832,1.993613362,16.32604218,0.05311036855,-0.02672099136,0.02237512171
0.954,4.713512897,2.004598141,16.21122551,0.04804891348,-0.02572615258,0.02541199327
0.956,4.654538631,2.004502296,16.07615471,0.04345869645,-0.02501056902,0.02759365551
0.958,4.567811012,1.996294975,15.9137125,0.03906046972,-0.02502802201,0.02879793197
0.96,4.444701195,1.999847889,15.7227993,0.0334928669,-0.02534218132,0.03022910282
0.962,4.313365459,1.983462095,15.52826595,0.02806489356,-0.02485348843,0.03176499158
0.964,4.19217062,1.968119979,15.32657814,0.02363175713,-0.02307325229,0.03333579004
0.966,4.094285965,1.974210858,15.14058685,0.01994911395,-0.02012364566,0.0346098803
0.968,4.005374908,1.964423299,14.96528339,0.01685987972,-0.01609193534,0.03417354822
0.97,3.924345732,1.971634626,14.79537201,0.0143466061,-0.01129228063,0.0324107632
0.972,3.842597961,1.980962515,14.63621521,0.01364847459,-0.006824237294,0.03043854237
0.974,3.753926277,1.978616238,14.4654026,0.01460840553,-0.003735004691,0.02775073424
0.976,3.673624754,1.985540152,14.30350685,0.01563815027,-0.0002617993741,0.0253770873
0.978,3.606577635,1.99418807,14.16134834,0.01701696031,0.003647738136,0.0234746784
0.98,3.533008575,2.000786543,14.01614571,0.01820378378,0.007138396613,0.02143264376
0.982,3.457878351,2.028999805,13.87170792,0.01867502369,0.01045452245,0.01965240762
0.984,3.402103186,2.05952096,13.72186947,0.01951278187,0.01338667516,0.0173660256
0.986,3.355559826,2.076155901,13.57433796,0.02110103145,0.01616174914,0.0151669113
0.988,3.305300713,2.083712101,13.44580746,0.02176425606,0.01855284907,0.01268854365
0.99,3.254170179,2.08240962,13.32891273,0.02202605456,0.0201585535,0.009791296907
0.992,3.198978901,2.069806576,13.22657585,0.02434734255,0.02143264376,0.007347836159
0.994,3.150932074,2.044159889,13.14163017,0.02748893574,0.02195624262,0.005078908056
0.996,3.095760345,2.005182266,13.05771732,0.03003711626,0.02059488557,0.002583087189
0.998,3.049130917,1.940624952,12.98380375,0.03265510872,0.01815142483,0.0003141592606
1.0,3.02386713,1.87024498,12.90903664,0.03625048697,0.01399754081,-0.001553343027
1.002,2.992790461,1.810514569,12.83887768,0.0396015197,0.008831365965,-0.003577925032
1.004,2.956628323,1.751732111,12.76436043,0.04159119725,0.003892084118,-0.004712388851
1.006,2.932140589,1.68567121,12.69525528,0.04303981736,-0.001570796361,-0.005497787148
1.008,2.918752193,1.609554768,12.63354206,0.04457570985,-0.007592182141,-0.007068583276
1.01,2.90728879,1.54718101,12.57928944,0.04646066576,-0.01446877979,-0.008656833321
1.012,2.888106346,1.492095232,12.53124237,0.04754276946,-0.02230530791,-0.009948376566
1.014,2.876049042,1.423994541,12.4858675,0.0473507829,-0.03056071512,-0.01078613475
1.016,2.868119717,1.3580966,12.43410492,0.04665265232,-0.03769911081,-0.01143190637
1.018,2.845039606,1.291173816,12.36373425,0.04604178667,-0.04377285764,-0.0116937058
1.02,2.825177193,1.229345918,12.30498028,0.04454080388,-0.05002113804,-0.01213003788
1.022,2.824803829,1.170448661,12.2572403,0.04265584797,-0.05635667965,-0.01293289009
1.024,2.835098743,1.127276421,12.20777607,0.0422020629,-0.06272713095,-0.01295034308
1.026,2.841859818,1.090970755,12.17559719,0.04171336815,-0.0678409487,-0.01263618376
1.028,2.837272644,1.050834179,12.14920425,0.03993313387,-0.07023204863,-0.01218239777
1.03,2.838249445,1.015342593,12.1208086,0.03794345632,-0.07183775306,-0.01106538717
1.032,2.834438086,0.9915442467,12.08434963,0.03586651757,-0.07438593358,-0.009651671164
1.034,2.834552765,0.9517909288,12.0386591,0.03344050795,-0.07637561113,-0.009075712413
1.036,2.836745739,0.9153703451,11.9886198,0.03152064607,-0.07717845589,-0.00884881895
1.038,2.833681345,0.884159565,11.93453979,0.02946115844,-0.07688175142,-0.009075712413
1.04,2.838077068,0.8577945828,11.88694382,0.02642428502,-0.0748571679,-0.00884881895
1.042,2.857412577,0.8419928551,11.82954025,0.02296853252,-0.07183775306,-0.008447393775
1.044,2.866204023,0.8175432682,11.75277233,0.01935570128,-0.06775368005,-0.008587019518
1.046,2.892013788,0.7996538281,11.69033146,0.01535889693,-0.06262241304,-0.008011061698
1.048,2.911349297,0.7966658473,11.64530182,0.01122246683,-0.05675810575,-0.007155850064
1.05,2.951073885,0.7783550024,11.59950447,0.006370451767,-0.04961971194,-0.006178465672
1.052,2.957547903,0.7573722005,11.5523777,0.0009250245057,-0.04199262336,-0.005148721393
1.054,2.956772089,0.7292451262,11.52208614,-0.004118977115,-0.03415609151,-0.004084070213
1.056,2.964213133,0.6921062469,11.48387527,-0.009337511845,-0.02527236752,-0.003036872949
1.058,2.965104103,0.6545268297,11.43924713,-0.01555088349,-0.01502728462,-0.001972222002
1.06,2.965266705,0.6131072044,11.39360332,-0.0212406572,-0.004555309191,-0.00122173049
1.062,2.957653046,0.5789467096,11.3510437,-0.02546435408,0.004747295752,-0.0009075712296
1.064,2.942234278,0.5562401414,11.30426216,-0.02937389165,0.0135961147,-0.0007853981806
1.066,2.933442831,0.5410895944,11.25818729,-0.03255039081,0.02254965343,-0.00137881015
1.068,2.930043221,0.5339739919,11.22539616,-0.03605850041,0.03125884756,-0.001919862116
1.07,2.922736168,0.522826612,11.18910027,-0.03968878835,0.03953170776,-0.001832595677
1.072,2.922343493,0.4898632467,11.16808891,-0.04211479425,0.04700171575,-0.001797689125
1.074,2.914404392,0.4834850729,11.1545763,-0.04468042776,0.05414011329,-0.001780235791
1.076,2.912939072,0.472941041,11.14560223,-0.04731587693,0.06115633622,-0.002408554312
1.078,2.89782691,0.4371142089,11.12251282,-0.04932300374,0.06843435764,-0.003298672382
1.08,2.892329931,0.3890769482,11.0916853,-0.05077162758,0.07550293952,-0.003961897455
1.082,2.890692234,0.3788106143,11.08064365,-0.0516791977,0.08089601249,-0.005497787148
1.084,2.861865997,0.3705745339,11.03757572,-0.0514173992,0.08625417203,-0.008342674002
1.086,2.852988243,0.3697509468,11.02659225,-0.05037020147,0.09222319722,-0.01202531811
1.088,2.836382151,0.3689177632,11.00112724,-0.04836307466,0.09780824929,-0.01572541706
1.09,2.814834118,0.3869987428,10.97628498,-0.04532619938,0.103550382,-0.01881464943
1.092,2.808082581,0.4078187346,10.96480179,-0.04188790172,0.1087340117,-0.0216420833
1.094,2.804960489,0.4188224673,10.95567608,-0.03890338913,0.1124166548,-0.02406809106
1.096,2.796916008,0.4483094811,10.93725872,-0.03738495335,0.1154884398,-0.02535963431
1.098,2.780242682,0.4840500951,10.91323185,-0.03644247353,0.1189616397,-0.02590068616
1.1,2.775406599,0.5359755754,10.87533569,-0.0354301855,0.1222603172,-0.02548180707
1.102,2.781353712,0.5472857952,10.86131573,-0.03534291685,0.1251750141,-0.02499311417
1.104,2.789972782,0.571792841,10.83363914,-0.03656464815,0.1270076036,-0.02511528693
1.106,2.79323864,0.5848460197,10.80520535,-0.03736750036,0.1280548126,-0.02420771681
1.108,2.779179573,0.5930150151,10.77529621,-0.03738495335,0.1291194558,-0.0232128799
1.11,2.745115042,0.6353349686,10.71638012,-0.03740240633,0.1292416304,-0.02281145379
1.112,2.734494448,0.651768744,10.6952343,-0.03740240633,0.1289623827,-0.02200860158
1.114,2.730884075,0.6624947786,10.64342403,-0.03708824515,0.1288576573,-0.02169444226
1.116,2.721814632,0.6770036221,10.59719658,-0.03632030264,0.1281944364,-0.0212406572
1.118,2.693361998,0.7114418149,10.52382851,-0.03537782282,0.1272868663,-0.02010619268
1.12,2.675961018,0.7339377403,10.4776392,-0.03499384969,0.1256462485,-0.01902408898
1.122,2.65390563,0.7724843621,10.45255756,-0.03452261165,0.1227664575,-0.0182561446
1.124,2.642739058,0.7885063887,10.44671535,-0.03338814899,0.1200262904,-0.01795943826
1.126,2.619879246,0.8053424358,10.44959831,-0.03228859231,0.1170068756,-0.01781981252
1.128,2.608492374,0.8140764832,10.4524622,-0.03057816811,0.113254413,-0.01745329238
1.13,2.567905664,0.8419162631,10.46578312,-0.02830924094,0.1095194072,-0.016685348
1.132,2.539070129,0.8520005941,10.46706676,-0.02675589733,0.1061160192,-0.01572541706
1.134,2.529761553,0.8572199941,10.46171284,-0.02581341937,0.1025206372,-0.0147131253
1.136,2.53387928,0.8724279404,10.45206928,-0.02446951531,0.09820967913,-0.01398008689
1.138,2.53050828,0.8670074344,10.44027996,-0.02235766686,0.09330530465,-0.01336922217
1.14,2.494710207,0.8700720072,10.40943336,-0.01991420612,0.08908160776,-0.01281071641
1.142,2.490869761,0.8717383742,10.40091991,-0.01701696031,0.08674286306,-0.01225221157
1.144,2.482978821,0.8811045289,10.38175678,-0.01427679323,0.08546877652,-0.01204277202
1.146,2.460779428,0.8955272436,10.35610104,-0.01282817032,0.08306021988,-0.01195550524
1.148,2.459046125,0.915073514,10.33316422,-0.01193805225,0.08114035428,-0.01223475765
1.15,2.451710463,0.9356253147,10.31258297,-0.009669124149,0.08129743487,-0.01328195538
1.152,2.461488247,0.9631011486,10.27077007,-0.006544984877,0.08136724681,-0.0143466061
1.154,2.479167223,0.988422215,10.26426888,-0.004014257342,0.08138470352,-0.01603957638
1.156,2.488791704,1.006158471,10.25969028,-0.001710422686,0.08140215278,-0.0173660256
1.158,2.500590324,1.031747699,10.25881958,0.0007853981806,0.08140215278,-0.01790707745
1.16,2.507006884,1.052127242,10.25993919,0.003385938704,0.08140215278,-0.01876228862
1.162,2.531169176,1.051581264,10.2612133,0.006335545331,0.08171631396,-0.02036799304
1.164,2.541330099,1.045394659,10.24346733,0.009424777701,0.0824842602,-0.02228785492
1.166,2.525164604,1.057183743,10.22102928,0.01226966456,0.08374089748,-0.02401573025
1.168,2.533410072,1.053171039,10.16159534,0.014381513,0.08583529294,-0.02628465928
1.17,2.540276766,1.054626703,10.12656307,0.01523672417,0.08763298392,-0.02785545401
1.172,2.542527437,1.091755986,10.10611725,0.01558579039,0.08899433911,-0.02879793197
1.174,2.554737806,1.109070778,10.09868526,0.01729621366,0.09018116444,-0.03014183603
1.176,2.592403412,1.133156538,10.08403301,0.01958259381,0.09065239877,-0.03131120652
1.178,2.6154356,1.143231273,10.09846497,0.01987930015,0.08990190923,-0.03272492439
1.18,2.63593936,1.164147139,10.12828732,0.01935570128,0.0889768824,-0.03363249451
1.182,2.677454948,1.172814131,10.20291042,0.01914626174,0.08765043318,-0.0343131721
1.184,2.716030359,1.168935418,10.26480484,0.01780235767,0.08679522574,-0.03490658477
1.186,2.734992504,1.16814065,10.29631233,0.01598721556,0.08613199741,-0.03450515866
1.188,2.755525112,1.15887022,10.352911,0.01431170013,0.08363617957,-0.03371975943
1.19,2.768817663,1.146161914,10.41088009,0.01204277202,0.08136724681,-0.0330914408
1.192,2.758244991,1.112987757,10.45100689,0.008918632753,0.07981390506,-0.0328296423
1.194,2.743439198,1.083548665,10.44095993,0.005427973811,0.0782431066,-0.03272492439
1.196,2.731343508,1.065869927,10.43426704,0.002111848444,0.07663740963,-0.03235840425
1.198,2.702852488,1.041429758,10.41620445,-0.001413716702,0.07442083955,-0.03190461919
1.2,2.668979406,1.022506118,10.38834572,-0.004764748737,0.07162830979,-0.03139847144
1.202,2.619285345,0.9896672368,10.34447384,-0.008011061698,0.06827727705,-0.03056071512
1.204,2.579790592,0.9648249745,10.33108616,-0.01186823845,0.06501351297,-0.02989749052
1.206,2.556049824,0.9561771154,10.32784843,-0.01658062823,0.06243042648,-0.02963569015
1.208,2.511680365,0.9437368512,10.33075142,-0.02103121765,0.05979498103,-0.02953097038
1.21,2.461555481,0.950756669,10.3351469,-0.0253770873,0.05682792142,-0.02916445211
1.212,2.405349016,0.9504693747,10.33658314,-0.03061307408,0.05309291556,-0.02839650773
1.214,2.337008953,0.935606122,10.32532978,-0.036215581,0.04872959107,-0.02806489356
1.216,2.269684076,0.9350411296,10.31967926,-0.04132939503,0.04475024343,-0.02762856148
1.218,2.196507454,0.9581882358,10.30687618,-0.04593706504,0.04061381146,-0.02713987045
1.22,2.144783497,0.9804447889,10.28024197,-0.05003859103,0.03607595712,-0.0269304309
1.222,2.069950104,1.026892185,10.23406315,-0.05295328796,0.03171263263,-0.0265290048
1.224,2.04247427,1.062518001,10.21340656,-0.0551000461,0.02740166895,-0.02668608353
1.226,2.037283659,1.08734107,10.20193291,-0.05660102889,0.02312561311,-0.0280125346
1.228,2.025705338,1.12697947,10.177742,-0.0565835759,0.01886700839,-0.02981022373
1.23,2.024517775,1.163457513,10.16271591,-0.05593780056,0.01460840553,-0.03117158078
1.232,2.04704237,1.22855103,10.14153194,-0.05504768342,0.01129228063,-0.03235840425
1.234,2.057787657,1.243490815,10.14648342,-0.05436700583,0.008988445625,-0.0337895751
1.236,2.066770792,1.245176435,10.15100288,-0.05377359316,0.006161012221,-0.03469714522
1.238,2.096027851,1.256467581,10.16431522,-0.05227261037,0.003752457909,-0.03537782282
1.24,2.127104521,1.26987505,10.1716795,-0.05103342608,0.004031710327,-0.0369137153
1.242,2.192609787,1.291279197,10.20116711,-0.05021312088,0.004782202188,-0.03754203022
1.244,2.218065262,1.301641226,10.20195198,-0.04892157763,0.005078908056,-0.03684389964
1.246,2.276540995,1.32691443,10.21736145,-0.04745550081,0.00520108128,-0.03782128543
1.248,2.339862823,1.324213862,10.24236584,-0.04654793069,0.005881759338,-0.03981095925
1.25,2.412579536,1.34580946,10.27438164,-0.04459316283,0.007731808349,-0.04092797264
1.252,2.512274265,1.354486108,10.29930973,-0.04127703607,0.009756390937,-0.0423242338
1.254,2.612399578,1.37851429,10.32515717,-0.03803072497,0.0124791041,-0.04352851212
1.256,2.710360765,1.401891232,10.34553719,-0.03450515866,0.01483529899,-0.04401720315
1.258,2.794885635,1.414580584,10.37105942,-0.03054326214,0.01738347858,-0.04485496134
1.26,2.871021271,1.42946291,10.39612198,-0.02640683204,0.02125811018,-0.0461290516
1.262,2.936555386,1.422241926,10.42075253,-0.02218313515,0.02441715635,-0.04696680978
1.264,2.99765563,1.412157536,10.44068241,-0.01794198528,0.02633701824,-0.04763003439
1.266,3.040387154,1.411008477,10.45666599,-0.01370083448,0.02963569015,-0.04789183289
1.268,3.086767673,1.392822027,10.45845699,-0.01007054932,0.03382448107,-0.04673991725
1.27,3.137773752,1.354802132,10.4486599,-0.006387905218,0.03616322204,-0.04501204193
1.272,3.17483592,1.317625046,10.44156361,-0.003001966281,0.03710569814,-0.04368559271
1.274,3.197140455,1.289201021,10.43556881,-0.0006632251316,0.0390779227,-0.04187044874
1.276,3.214627743,1.248279333,10.43728352,0.00214675488,0.04145156965,-0.03954916075
1.278,3.239278316,1.193605304,10.44127655,0.004572762642,0.04305727407,-0.0370358862
1.28,3.245675564,1.127783895,10.43211174,0.005881759338,0.04495968297,-0.03412118554
1.282,3.243980408,1.10979867,10.42907524,0.007347836159,0.04700171575,-0.03134611249
1.284,3.233158588,1.076279879,10.42113686,0.009529497474,0.04815363511,-0.02895501256
1.286,3.219732046,1.037963033,10.40079498,0.01230457146,0.04893903062,-0.02640683204
1.288,3.200233698,0.9961220026,10.38717651,0.01502728462,0.04893903062,-0.02378883772
1.29,3.166197777,0.9660029411,10.36842537,0.01706931926,0.04799655452,-0.02178170905
1.292,3.146814108,0.9518483877,10.32687187,0.01947787404,0.0476125814,-0.02033308521
1.294,3.126032352,0.9552769065,10.29541206,0.0229859855,0.04714134336,-0.01848303713
1.296,3.1129601,0.9564548135,10.26147175,0.02663372457,0.04630358517,-0.01645845547
1.298,3.092178583,0.9457192421,10.22946548,0.02937389165,0.04722860828,-0.01532399096
1.3,3.094946384,0.936506331,10.20938396,0.03080506064,0.04855506122,-0.01391027402
1.302,3.08444047,0.9378087521,10.19515228,0.03043854237,0.04815363511,-0.01239183731
1.304,3.060948372,0.9441007972,10.19027805,0.02933898382,0.04766494036,-0.01115265395
1.306,3.019586325,0.9427887797,10.17461967,0.02858849242,0.04906120524,-0.009372417815
1.308,2.997904539,0.9210302234,10.1541729,0.02701769583,0.05024803057,-0.007714355364
1.31,2.953343391,0.9093273878,10.11076164,0.02542944625,0.04979424179,-0.006719517522
1.312,2.889983416,0.9069619179,10.07229233,0.02382374369,0.04897394031,-0.006614797749
1.314,2.822409391,0.9157246947,10.0147934,0.02160717547,0.04831071198,-0.006894050632
1.316,2.759307861,0.9200246334,9.954066277,0.01975712739,0.04867723212,-0.007644542027
1.318,2.687271357,0.9293141365,9.893166542,0.01836086437,0.04914847016,-0.009215338156
1.32,2.637308836,0.9563112259,9.84480381,0.01780235767,0.04934045672,-0.01048942842
1.322,2.584052324,0.9712797403,9.80334568,0.01788962446,0.05068436265,-0.01193805225
1.324,2.525356054,0.9815844297,9.764971733,0.01729621366,0.05216789246,-0.01411971357
1.326,2.480297089,0.9856162071,9.724136353,0.01673770696,0.05340707675,-0.01658062823
1.328,2.430670261,0.9874358177,9.690042496,0.01651081443,0.05485569686,-0.0188495554
1.33,2.384739637,1.000776291,9.660441399,0.0154636167,0.05703736097,-0.02165953629
1.332,2.34104085,0.9934883714,9.635608673,0.01378810126,0.05981243402,-0.02501056902
1.334,2.284633636,0.9752732515,9.606360435,0.01246165112,0.06220353395,-0.02701769583
1.336,2.245857,0.9483050108,9.581518173,0.01192059834,0.06569419056,-0.02846631967
1.338,2.21804595,0.9269391298,9.560918808,0.01108284108,0.06965608895,-0.03031636961
1.34,2.193586588,0.8893309832,9.551858902,0.009459684603,0.07283259183,-0.03232349828
1.342,2.170707703,0.8640673757,9.524699211,0.006283185445,0.07665485889,-0.03408627957
1.344,2.160182953,0.8550556302,9.494130135,0.002792526735,0.08073893189,-0.03576179594
1.346,2.156859636,0.8488786221,9.480358124,0.0004188790335,0.08461356163,-0.03738495335
1.348,2.163007975,0.8417247534,9.473137856,-0.001797689125,0.08775515109,-0.03836233541
1.35,2.164703131,0.8326746225,9.465198517,-0.005550147034,0.08998917788,-0.03876376152
1.352,2.159541368,0.8171027303,9.458571434,-0.009599311277,0.0918392241,-0.03860668465
1.354,2.169769287,0.8160780072,9.455670357,-0.01314232964,0.09354964644,-0.03790855035
1.356,2.186480761,0.801818192,9.453016281,-0.0171042271,0.09456194192,-0.03700098023
1.358,2.195396662,0.7679832578,9.457920074,-0.01998401992,0.09433504939,-0.03598868847
1.36,2.221120119,0.7407181263,9.461463928,-0.02242748067,0.09393361956,-0.03464478627
1.362,2.232209921,0.7302123308,9.455803871,-0.02562143281,0.09375908971,-0.03251548484
1.364,2.266389608,0.7078313828,9.444742203,-0.02818706818,0.09337511659,-0.03070034087
1.366,2.293578148,0.6905835867,9.433317184,-0.02986258268,0.09290387481,-0.02900737152
1.368,2.332249165,0.665990293,9.436382294,-0.03179989755,0.09176941216,-0.02738421597
1.37,2.369254112,0.64607054,9.441868782,-0.03354522958,0.09066985548,-0.02576106042
1.372,2.400053263,0.6303167343,9.460697174,-0.03424336016,0.08929104358,-0.02227040194
1.374,2.413929939,0.6131837964,9.471998215,-0.03328342736,0.08651597053,-0.01895427518
1.376,2.425220966,0.5911380053,9.481459618,-0.0316253677,0.0841248706,-0.01729621366
1.378,2.431484222,0.5864166021,9.477524757,-0.03031636961,0.08218755573,-0.01596976258
1.38,2.425719023,0.5955433249,9.460993767,-0.0288328398,0.07951720059,-0.01450368576
1.382,2.42368865,0.5957061052,9.454175949,-0.02633701824,0.07527604699,-0.01263618376
1.384,2.417032719,0.6032047868,9.428078651,-0.02310816012,0.07007496804,-0.01061160211
1.386,2.400436163,0.6122165322,9.399329185,-0.01926843449,0.06480407715,-0.00884881895
1.388,2.365088224,0.6421919465,9.384706497,-0.0154985236,0.05981243402,-0.007487462368
1.39,2.331090689,0.6826251745,9.367793083,-0.01302015595,0.05462880433,-0.005986479111
1.392,2.309264898,0.7094498277,9.344491959,-0.01106538717,0.04778711498,-0.004747295752
1.394,2.285935879,0.7553610802,9.310370445,-0.008691739291,0.04026474431,-0.004241149873
1.396,2.261093855,0.7991079092,9.276209831,-0.007086036727,0.03403392062,-0.003717551241
1.398,2.229547501,0.8300984502,9.240009308,-0.006754423957,0.02961823717,-0.00287979329
1.4,2.20184207,0.8168058395,9.203608513,-0.00630063843,0.02497566119,-0.002530727303
1.402,2.159972191,0.8202822208,9.175423622,-0.005794493016,0.01898918301,-0.003351032268
1.404,2.124432564,0.8540117145,9.146837234,-0.005602506921,0.01370083448,-0.003682644805
1.406,2.108966112,0.8822824955,9.108922005,-0.005515240598,0.009983283468,-0.003490658477
1.408,2.094926596,0.9047688246,9.077270508,-0.006108652335,0.005934119225,-0.004677482415
1.41,2.080551863,0.9335662723,9.06264782,-0.007627088577,0.002076941775,-0.006422811653
1.412,2.058640003,0.9647867084,9.041156769,-0.009180432186,-0.001361356815,-0.009040805511
1.414,2.050882816,0.9954707623,9.014935493,-0.01012290921,-0.004677482415,-0.01199041214
1.416,2.046793461,1.021538854,8.997045517,-0.01115265395,-0.006021386012,-0.01476548519
1.418,2.032715559,1.041870356,8.968267441,-0.012514011,-0.006562437862,-0.01747074537
1.42,2.004483223,1.057518959,8.942889214,-0.01401499379,-0.007417649496,-0.01921607554
1.422,1.986124396,1.070007086,8.920009613,-0.01588249579,-0.00808087457,-0.02085668407
1.424,1.9705621,1.084448814,8.901039124,-0.01916371472,-0.007086036727,-0.02343977243
1.426,1.946706295,1.076126575,8.87215519,-0.02335250564,-0.005113814492,-0.02574360557
1.428,1.935175776,1.062230706,8.838750839,-0.02694788389,-0.003665191354,-0.02762856148
