Time (s),Acceleration x (m/s^2),Acceleration y (m/s^2),Acceleration z (m/s^2),Gyroscope x (rad/s),Gyroscope y (rad/s),Gyroscope z (rad/s)
0.0,-1.115956545,-0.2848716974,9.246109962,0.02771582827,0.00989601668,0.02963569015
0.002,-1.115448952,-0.2756588161,9.239282608,0.02317797206,0.01284562331,0.03089232743
0.004,-1.093939424,-0.2524350286,9.243332863,0.01787217148,0.01562069636,0.03139847144
0.006,-1.065582514,-0.2182554305,9.238601685,0.01223475765,0.0196000468,0.03160791099
0.008,-1.037627816,-0.1893239021,9.233037949,0.007417649496,0.02405063622,0.03232349828
0.01,-1.008974075,-0.1620682925,9.245306015,0.003246312495,0.02745402977,0.03324852139
0.012,-0.9683588147,-0.141880393,9.268184662,-0.0009599310579,0.03197443113,0.0345749706
0.014,-0.9276670218,-0.1428093463,9.297614098,-0.004886921961,0.0372976847,0.03509857133
0.016,-0.8981416821,-0.1268064976,9.334053993,-0.008377579972,0.04230678082,0.03501130641
0.018,-0.8560420275,-0.09457097203,9.363176346,-0.0116937058,0.04719370231,0.03464478627
0.02,-0.8123047352,-0.07946834713,9.40123558,-0.01368338149,0.0526391305,0.03356268257
0.022,-0.7794371247,-0.07540777326,9.435931206,-0.01480039209,0.05991715193,0.03216641769
0.024,-0.7533116341,-0.08137413114,9.482083321,-0.01525417715,0.06602580845,0.03097959422
0.026,-0.723125577,-0.07602068782,9.522334099,-0.01481784508,0.07042403519,0.02986258268
0.028,-0.6933991313,-0.06493074447,9.562087059,-0.01431170013,0.07377506793,0.02782054804
0.03,-0.6651092768,-0.05605304986,9.602003098,-0.01380555425,0.07703883201,0.02446951531
0.032,-0.6433986425,-0.04074931517,9.655211449,-0.0132645024,0.08121016622,0.02057743259
0.034,-0.6028791666,-0.03863283992,9.724298477,-0.01242674422,0.08480554819,0.01616174914
0.036,-0.5895290375,-0.04335420579,9.746354103,-0.01082104165,0.08721410483,0.01118756086
0.038,-0.573248446,-0.04192726314,9.794343948,-0.009215338156,0.08787732571,0.006021386012
0.04,-0.5598601103,-0.0357119143,9.852876663,-0.008569566533,0.08656833321,0.0004363323096
0.042,-0.5426793098,-0.02503377385,9.918660164,-0.007993607782,0.08539895713,-0.00591666624
0.044,-0.5323267579,-0.008609549142,9.955914497,-0.007120943163,0.08429940045,-0.0135612078
0.046,-0.5260156989,0.0007374141132,9.971083641,-0.006126105785,0.08131489158,-0.02171189524
0.048,-0.5089306831,0.02594356984,9.997735977,-0.005410520826,0.0778940469,-0.02946115844
0.05,-0.5072355866,0.05914635956,10.02614021,-0.004817108624,0.07429866493,-0.03640756756
0.052,-0.5213996768,0.08059840649,10.03384113,-0.004241149873,0.06998769939,-0.04365068302
0.054,-0.5439913273,0.0978653878,10.04023838,-0.00432841666,0.06698573381,-0.05164429173
0.056,-0.5666117668,0.1157548651,10.04644299,-0.004049163777,0.06574655324,-0.0599520579
0.058,-0.5780081749,0.1390073597,10.05316734,-0.0033161256,0.06429792941,-0.06806784123
0.06,-0.5919424295,0.1413728148,10.05376053,-0.003001966281,0.0630761981,-0.07546803355
0.062,-0.6222817302,0.1571745574,10.04715252,-0.003822271014,0.06258750707,-0.08321730047
0.064,-0.6514718533,0.1688774079,10.04224873,-0.00448549632,0.06206390634,-0.09173450619
0.066,-0.6848470569,0.1828116626,10.0215435,-0.005061454605,0.06248278543,-0.1005833223
0.068,-0.7109438181,0.2147120088,10.00726509,-0.005934119225,0.0635997951,-0.1092227027
0.07,-0.7325969934,0.2290293276,9.982844353,-0.005969026126,0.06469935179,-0.1174781099
0.072,-0.7540585995,0.247072041,9.945380211,-0.005672320258,0.06607816368,-0.1262047589
0.074,-0.7663839459,0.2650189698,9.874894142,-0.006178465672,0.06822492182,-0.1348092258
0.076,-0.7656753063,0.2681027055,9.855654716,-0.007330382708,0.07099999487,-0.1427155733
0.078,-0.7739688158,0.2748064697,9.809657097,-0.007487462368,0.07401940972,-0.1506742686
0.08,-0.7885734439,0.2890184522,9.762989044,-0.006911503617,0.0774577111,-0.1583362669
0.082,-0.7853651643,0.2817496657,9.710959435,-0.007312929723,0.08201301843,-0.1652477682
0.084,-0.7857387066,0.2856282592,9.670679092,-0.008744099177,0.08765043318,-0.1718451232
0.086,-0.7867251039,0.2821135819,9.634794235,-0.009634217247,0.09215338528,-0.1783202887
0.088,-0.7823867798,0.2705639303,9.60261631,-0.009686577134,0.09651670605,-0.1838006228
0.09,-0.7816590071,0.2619256675,9.579018593,-0.01001818944,0.1017701477,-0.1876054406
0.092,-0.7615572214,0.2471869588,9.54430294,-0.01015781611,0.1070584953,-0.1916720569
0.094,-0.7445392609,0.2610158622,9.521126747,-0.00989601668,0.1123642996,-0.196175009
0.096,-0.7074770331,0.261734128,9.491286278,-0.01010545623,0.1176875532,-0.1998925656
0.098,-0.6751457453,0.2654786706,9.455209732,-0.01082104165,0.1230108067,-0.2033134103
0.1,-0.6440881491,0.2801311612,9.423271179,-0.01174606569,0.1280198991,-0.2065946162
0.102,-0.5933693647,0.2855899632,9.38647747,-0.0124441972,0.1325752139,-0.2101376355
0.104,-0.5511931181,0.2932226658,9.378059387,-0.01176351868,0.1353851855,-0.2140995413
0.106,-0.531426549,0.3087849617,9.382665634,-0.01055924222,0.1365196556,-0.2188817412
0.108,-0.5021694303,0.327306509,9.374678612,-0.01036725566,0.1382475346,-0.223663941
0.11,-0.4765227735,0.3421601653,9.363388062,-0.009669124149,0.1414763927,-0.2268753499
0.112,-0.459418565,0.3544950783,9.377063751,-0.007173303049,0.1437453181,-0.2294409871
0.114,-0.4613147974,0.3604231179,9.409366608,-0.00520108128,0.1459269822,-0.2326872945
0.116,-0.4616882801,0.3660160005,9.445672035,-0.004415682983,0.148387894,-0.2368586361
0.118,-0.4704319239,0.3557209074,9.489121437,-0.003455751808,0.1493827254,-0.2420248091
0.12,-0.4813590348,0.3527329266,9.536870956,-0.002426007763,0.1510582417,-0.2482381761
0.122,-0.4930523038,0.343175292,9.597933769,-0.001710422686,0.1536413282,-0.2551845908
0.124,-0.5212751627,0.3216562271,9.661207199,-0.0001396263397,0.1556310058,-0.2624277174
0.126,-0.5469985008,0.2994380295,9.69962883,0.002373647876,0.1564513147,-0.2694788277
0.128,-0.5648687482,0.2751799524,9.737764359,0.004345869645,0.1548805237,-0.2764601409
0.13,-0.5790233016,0.2557677627,9.784632683,0.005462880712,0.1517214775,-0.2824466228
0.132,-0.5891651511,0.2486043274,9.819684982,0.006544984877,0.1485449672,-0.288677454
0.134,-0.5950548649,0.2328792065,9.860203743,0.007941247895,0.1453510225,-0.2975262702
0.136,-0.6092094183,0.2471294999,9.892170906,0.009459684603,0.1424712241,-0.3071255982
0.138,-0.6145149469,0.2588419318,9.917022705,0.01197295822,0.1397310644,-0.3157649636
0.14,-0.6215443015,0.283942759,9.93652153,0.01455604564,0.1373399645,-0.3224321306
0.142,-0.6387730241,0.2942378223,9.957369804,0.01593485661,0.1351059377,-0.3292563558
0.144,-0.6450840831,0.3258891702,9.963977814,0.01680752076,0.1335700452,-0.3405660987
0.146,-0.6653581858,0.3679217398,9.959591866,0.01780235767,0.1348441392,-0.3533593714
0.148,-0.6731345654,0.4012394845,9.959103584,0.01883210242,0.1385093331,-0.3648959994
0.15,-0.6850768924,0.4320288897,9.95651722,0.01987930015,0.1425235868,-0.3768340349
0.152,-0.704144299,0.4621192217,9.946452141,0.02062979154,0.1451066732,-0.387393266
0.154,-0.7181455493,0.4972373843,9.928198814,0.02188642882,0.1461713314,-0.3992615044
0.156,-0.7351635695,0.526781857,9.906775475,0.02396337129,0.1475326866,-0.413241595
0.158,-0.7617105246,0.55178684,9.871744156,0.02607521974,0.1496794373,-0.4239753783
0.16,-0.7903833985,0.5745892525,9.839680672,0.0269304309,0.1524370611,-0.4340459406
0.162,-0.8130134344,0.5931203365,9.8099823,0.02665117756,0.1560847908,-0.4463330507
0.164,-0.8321478963,0.6166985035,9.777737617,0.02811725438,0.1588424146,-0.4614475965
0.166,-0.8484572172,0.6364746094,9.750434875,0.03124139272,0.1609019041,-0.477068305
0.168,-0.8609358072,0.6623032093,9.717576027,0.03408627957,0.1636420637,-0.4884653091
0.17,-0.8739697933,0.6762757897,9.679843903,0.03588397056,0.1657015532,-0.4994259775
0.172,-0.8906143308,0.685603559,9.654062271,0.03724532574,0.1681101173,-0.5124112368
0.174,-0.8748030066,0.7153108716,9.609703064,0.04000294581,0.1722639948,-0.5268450975
0.176,-0.8351166844,0.7286034822,9.574604034,0.04333652556,0.1770985574,-0.5418723822
0.178,-0.925521791,0.7339090109,9.550969124,0.04595451802,0.1809557378,-0.5530424714
0.18,-0.9158108234,0.7506780028,9.588882446,0.04829325899,0.1853714138,-0.5642125607
0.182,-0.9223135114,0.772359848,9.590195656,0.05017821491,0.1900139898,-0.5754001737
0.184,-0.9244491458,0.7983130217,9.5779562,0.05126031861,0.1947438419,-0.5853136182
0.186,-0.9308751822,0.8326267004,9.593594551,0.05234242231,0.2007652223,-0.5953492522
0.188,-0.9374161363,0.8558217883,9.597569466,0.0537212342,0.205756858,-0.6022782326
0.19,-0.9280787706,0.8785092235,9.586594582,0.05396557972,0.2106088847,-0.607618928
0.192,-0.918099761,0.8989174366,9.595012665,0.05375614017,0.2157576084,-0.6129421592
0.194,-0.8983907104,0.9195362329,9.607605934,0.0539830327,0.2219535261,-0.6192253828
0.196,-0.8865346313,0.937253356,9.620639801,0.05408775434,0.2295282483,-0.6258750558
0.198,-0.8840733767,0.9598641992,9.644476891,0.05443681777,0.2354449183,-0.6311110258
0.2,-0.8641152978,0.99373734,9.667737961,0.05489060655,0.2406983525,-0.6357710958
0.202,-0.8581585288,1.028252244,9.681663513,0.05539675057,0.2466150224,-0.6401867867
0.204,-0.8436208963,1.058562756,9.71228981,0.05592034757,0.2534567118,-0.6451435089
0.206,-0.8268519044,1.077658892,9.747924805,0.05612978712,0.260961622,-0.6506412625
0.208,-0.8316307664,1.104531527,9.774778366,0.05621705577,0.2675065994,-0.6560168862
0.21,-0.8218528628,1.13540709,9.811553955,0.05656611919,0.2720444798,-0.6610609293
0.212,-0.8096711636,1.171463728,9.841481209,0.05701990798,0.2754827738,-0.6656336784
0.214,-0.7978533506,1.217087626,9.862319946,0.05784020945,0.2797239125,-0.6706601977
0.216,-0.7805097699,1.269099236,9.887219429,0.05976007506,0.2845933735,-0.6774321198
0.218,-0.762993753,1.311294675,9.906805038,0.0614704974,0.2894279361,-0.6842912436
0.22,-0.749902308,1.354696751,9.911899567,0.06312856078,0.2935992777,-0.6896144748
0.222,-0.7285172939,1.392180443,9.922836304,0.06600835174,0.2968805134,-0.6958802342
0.224,-0.6829029322,1.435783625,9.933236122,0.06908012927,0.3001093566,-0.7031582594
0.226,-0.6577447057,1.44816637,9.938119888,0.07253587991,0.3042632341,-0.7118150592
0.228,-0.6082612872,1.479549527,9.939691544,0.07646287233,0.3081727922,-0.7216413021
0.23,-0.565366745,1.512445927,9.942813873,0.07963937521,0.3110176623,-0.7297570705
0.232,-0.5149257183,1.532930732,9.937823296,0.08283332735,0.3140719831,-0.7368431091
0.234,-0.465174228,1.562283635,9.924770355,0.0860272795,0.3181560636,-0.7450810671
0.236,-0.449650228,1.58361125,9.917731285,0.08984954655,0.3220306933,-0.7560242414
0.238,-0.43436566,1.605187774,9.924760818,0.09424778074,0.324858129,-0.7664787769
0.24,-0.4154227376,1.623038888,9.910568237,0.097302109,0.3282266259,-0.7748214602
0.242,-0.4081252217,1.644232392,9.895015717,0.100112088,0.3324328661,-0.7842288017
0.244,-0.4015363455,1.675902843,9.884738922,0.1037947312,0.3363598585,-0.794054985
0.246,-0.3753629327,1.711720109,9.871121407,0.1071806699,0.3376514018,-0.8065689802
0.248,-0.3804386556,1.74572742,9.847724915,0.1088736355,0.3362725973,-0.8198683858
0.25,-0.4084412158,1.793046355,9.842227936,0.1102000922,0.3360282481,-0.8322253227
0.252,-0.4082688689,1.867927432,9.817539215,0.1126260981,0.3378259242,-0.8448441029
0.254,-0.4130476713,1.93231225,9.780715942,0.1155058891,0.3391872942,-0.8562759757
0.256,-0.4207761586,1.976250768,9.760365486,0.1170068756,0.3375292122,-0.8688248992
0.258,-0.4389337897,2.044121504,9.75204277,0.1169719696,0.3346494436,-0.8802568316
0.26,-0.4512495697,2.106140852,9.736653328,0.1172861233,0.332205981,-0.8890008926
0.262,-0.463450402,2.154465675,9.725898743,0.1180366203,0.3293261826,-0.8976228237
0.264,-0.4743679762,2.196900368,9.744112968,0.1180366203,0.3271968663,-0.9058607817
0.266,-0.4802289605,2.239498138,9.75334549,0.1177050024,0.3263416588,-0.9158440828
0.268,-0.4875169396,2.267519712,9.756583214,0.1172686741,0.3266209066,-0.9265254736
0.27,-0.4845864177,2.307627439,9.76180172,0.1164483652,0.3276855648,-0.9343619943
0.272,-0.4867220521,2.340925932,9.776483536,0.1161167547,0.3281044364,-0.9413259029
0.274,-0.4817804396,2.358355761,9.801153183,0.1153488085,0.3292389214,-0.9479581118
0.276,-0.4670608938,2.37203145,9.831665039,0.11377801,0.3322234154,-0.9550790787
0.278,-0.4689762294,2.377509356,9.860539436,0.1118756011,0.3353300989,-0.96176368
0.28,-0.4568423927,2.390888214,9.882248878,0.1092052534,0.3403741121,-0.9679421186
0.282,-0.4459248781,2.396308661,9.914800644,0.1068665087,0.3462209702,-0.9739460945
0.284,-0.4381867945,2.415567636,9.947333336,0.1055924222,0.3508111835,-0.977331996
0.286,-0.4175487757,2.441041708,9.974598885,0.1034980267,0.3570943773,-0.9812241197
0.288,-0.3924958408,2.46585536,9.991415024,0.1013687253,0.3631331921,-0.9853430986
0.29,-0.378121078,2.487508535,10.00270748,0.09988519549,0.3677932322,-0.9882752299
0.292,-0.3652306795,2.510847092,10.00355816,0.0973893702,0.3734830022,-0.9913644791
0.294,-0.3537193537,2.530355215,10.01242638,0.09416051209,0.3795742095,-0.9935810566
0.296,-0.3289058506,2.536733389,10.02232933,0.09094911069,0.3852290809,-0.9960594177
0.298,-0.3126156926,2.542124987,10.02627563,0.08806931227,0.3894178569,-0.9989566207
0.3,-0.3000796437,2.54385829,10.03468323,0.08531169593,0.3926990926,-1.001085997
0.302,-0.3063046038,2.554440975,10.03398418,0.08260643482,0.3962421119,-1.003215194
0.304,-0.2972928286,2.569064617,10.02974224,0.08087855577,0.4002040029,-1.006286979
0.306,-0.3057299852,2.597775936,10.02310562,0.07892379165,0.4043578804,-1.010702729
0.308,-0.3188406229,2.611480236,10.00983238,0.07684684545,0.4069758654,-1.014699459
0.31,-0.3172125816,2.628287554,9.994729042,0.07538077235,0.408372134,-1.019481778
0.312,-0.3408481479,2.637356997,9.991874695,0.07447320223,0.4095589519,-1.024595499
0.314,-0.3536810577,2.664143085,9.990457535,0.07408922911,0.4100476503,-1.028871536
0.316,-0.363832444,2.67853713,9.990199089,0.07363544405,0.409942925,-1.034090161
0.318,-0.3710055053,2.684915304,9.99732399,0.07344345748,0.4098905623,-1.040006757
0.32,-0.3806205988,2.686485767,10.0138731,0.07367035002,0.4089131951,-1.046831012
0.322,-0.3854856193,2.688573599,10.02569008,0.07471754402,0.4069409668,-1.054335952
0.324,-0.3590536416,2.70569706,9.999718666,0.0764105171,0.4045673311,-1.06245172
0.326,-0.3803237379,2.712007999,9.991578102,0.07677703351,0.4013908207,-1.070811868
0.328,-0.3703829944,2.717141151,9.99066925,0.07566002011,0.3969402313,-1.079573393
0.33,-0.3663703203,2.732282162,9.962617874,0.07489208132,0.3926118016,-1.087235451
0.332,-0.3512868583,2.741839886,9.937163353,0.0745953694,0.3902032673,-1.094146848
0.334,-0.3475519121,2.759604692,9.903778076,0.07445574552,0.388597548,-1.101390004
0.336,-0.3377548158,2.783795834,9.869138718,0.07377506793,0.3860493898,-1.10842371
0.338,-0.315230161,2.78500247,9.827651978,0.07255333662,0.3837455511,-1.116033316
0.34,-0.3555293977,2.793688774,9.816523552,0.07173303515,0.3821921945,-1.123224139
0.342,-0.3679983914,2.79057622,9.812874794,0.07171557844,0.3806039393,-1.129943609
0.344,-0.3604422808,2.78989625,9.803556442,0.07108726352,0.3793298602,-1.136471152
0.346,-0.3458184898,2.782646418,9.797686577,0.0695688203,0.3791204095,-1.142911434
0.348,-0.3300071657,2.774688244,9.797801018,0.0686263442,0.3796614707,-1.149630904
0.35,-0.3173274696,2.768817663,9.800329208,0.06824237108,0.3802025318,-1.156804204
0.352,-0.3032687306,2.769171953,9.80996418,0.06745697558,0.3810577393,-1.163488865
0.354,-0.284201324,2.756951809,9.821752548,0.06586872786,0.3826634288,-1.168742299
0.356,-0.2554709017,2.743353128,9.834671974,0.06490879506,0.3852116168,-1.174676418
0.358,-0.1964490414,2.745249033,9.835678101,0.06452482194,0.3878296018,-1.181186438
0.36,-0.1328207403,2.760380268,9.827038765,0.06342526525,0.3904650509,-1.186684251
0.362,-0.09952218086,2.777120829,9.836616516,0.06234316155,0.3934495747,-1.191449046
0.364,-0.07370310277,2.787013769,9.855797768,0.06157521531,0.3968529701,-1.196231246
0.366,-0.04781699926,2.797423601,9.8585186,0.0606501922,0.4007799625,-1.201327562
0.368,-0.03485957533,2.806358576,9.866323471,0.0599520579,0.4048989415,-1.206563592
0.37,-0.0419751443,2.816548347,9.890571594,0.05934119597,0.409419328,-1.212480187
0.372,-0.05415683985,2.81977582,9.920393944,0.05815437064,0.4150393009,-1.218047857
0.374,-0.0521552898,2.813426495,9.949717522,0.05609488115,0.4204847217,-1.222515821
0.376,-0.0415250361,2.809806347,9.989605904,0.0539830327,0.425232023,-1.226547599
0.378,-0.03645890579,2.802278996,10.02060509,0.05124286562,0.4299967587,-1.231033087
0.38,-0.05372588709,2.800325394,10.05587673,0.04759512842,0.4347789586,-1.235378981
0.382,-0.06728664041,2.797902346,10.0899229,0.0442266427,0.4389328659,-1.238415837
0.384,-0.07644207031,2.799884796,10.12643814,0.04125958309,0.4431565404,-1.240597486
0.386,-0.07171113044,2.782771111,10.15124321,0.03848451003,0.4483401775,-1.243686676
0.388,-0.06394433975,2.774774313,10.16341496,0.03672172874,0.4523544312,-1.246845722
0.39,-0.07656657696,2.7797544,10.17235088,0.03632030264,0.45556584,-1.248451471
0.392,-0.08519527316,2.762956619,10.16760921,0.03520328924,0.4590739608,-1.250039697
0.394,-0.09787496179,2.747145176,10.16611481,0.0334928669,0.4627216756,-1.252273679
0.396,-0.1074421927,2.729447603,10.1549778,0.03216641769,0.4648335278,-1.255066276
0.398,-0.1080742627,2.704040051,10.14545822,0.03225368261,0.46694538,-1.258103132
0.4,-0.1232726574,2.676640987,10.13418674,0.03419100121,0.4700346291,-1.260913134
0.402,-0.1396872997,2.650592089,10.13262558,0.03529055789,0.4712738097,-1.264595747
0.404,-0.1490246952,2.632080078,10.12135315,0.03605850041,0.4702091515,-1.268295884
0.406,-0.1615224332,2.61070466,10.11361504,0.0382576175,0.4678878784,-1.271385074
0.408,-0.1702085882,2.603196383,10.09985352,0.04105014354,0.4656713009,-1.27421248
0.41,-0.1731199324,2.580547094,10.08393764,0.0412421301,0.4587772489,-1.279780149
0.412,-0.1782435328,2.581035614,10.0785265,0.03974114731,0.4509057999,-1.286796331
0.414,-0.1787319481,2.593533516,10.06873798,0.04323180392,0.4489859343,-1.291212082
0.416,-0.1872074157,2.601424456,10.04873276,0.05064945295,0.4497713447,-1.293969631
0.418,-0.1922256649,2.601213932,10.02885151,0.05745624006,0.4507138133,-1.295400858
0.42,-0.196583122,2.620262146,10.01713848,0.06464699656,0.4492128491,-1.295994282
0.422,-0.1864795834,2.636054516,10.00022697,0.07230898738,0.4454429448,-1.296221137
0.424,-0.1630451381,2.646311045,10.00035095,0.07984881103,0.4423362315,-1.296954155
0.426,-0.1561594158,2.652181625,9.988742828,0.09018116444,0.4394913614,-1.299135804
0.428,-0.1417080015,2.642116547,9.982269287,0.1003738865,0.4361228645,-1.301300049
0.43,-0.1389977783,2.631831169,9.968479156,0.1086292937,0.431602478,-1.302801013
0.432,-0.1316044778,2.626554251,9.958079338,0.1173559353,0.4253367484,-1.304371834
0.434,-0.1056226045,2.606557846,9.955435753,0.1259604096,0.4174129367,-1.305628419
0.436,-0.08682333678,2.574274302,9.952236176,0.1345125288,0.4088259339,-1.30740869
0.438,-0.06114790961,2.557352304,9.941233635,0.1427330226,0.4002912641,-1.309398413
0.44,-0.04455130547,2.530230761,9.922213554,0.1507964432,0.3920707703,-1.310201168
0.442,-0.02158612199,2.497324705,9.892055511,0.1591391265,0.3855781257,-1.30959034
0.444,-0.009394847788,2.466056347,9.88203907,0.166958198,0.3791378736,-1.309328556
0.446,-0.01584003866,2.425967932,9.863909721,0.1748645306,0.3714758754,-1.31049788
0.448,-0.01025675982,2.415098429,9.838732719,0.1831374019,0.3629761338,-1.31128335
0.45,0.0007757213898,2.426188231,9.813181877,0.1902932525,0.3554188609,-1.310969114
0.452,0.01532289106,2.424991131,9.785006523,0.1963669956,0.3491880298,-1.310846925
0.454,-0.004434061702,2.425824165,9.747819901,0.2019869536,0.3422416151,-1.311422944
0.456,-0.05317043141,2.397907972,9.73157692,0.2068040669,0.3349810541,-1.312295556
0.458,-0.1051054522,2.388388634,9.717547417,0.211603716,0.327929914,-1.312958837
0.46,-0.1333857775,2.377777576,9.694123268,0.2160892189,0.321262747,-1.313238144
0.462,-0.1507868171,2.381531477,9.663247108,0.2191784531,0.316026777,-1.31334281
0.464,-0.1433169097,2.415222883,9.60293293,0.2213775665,0.3110525906,-1.313395143
0.466,-0.1966405809,2.438255072,9.564270973,0.222913444,0.3055722415,-1.313726783
0.468,-0.2494183481,2.451586008,9.580828667,0.2241526395,0.3004933298,-1.314494729
0.47,-0.2982887924,2.442574263,9.578424454,0.2256187052,0.2949431837,-1.315123081
0.472,-0.3665235639,2.418938398,9.565707207,0.2271545976,0.2885901928,-1.315367341
0.474,-0.441165179,2.408787012,9.57698822,0.2274687588,0.2819055915,-1.315472126
0.476,-0.4793766439,2.382623196,9.569059372,0.2263343036,0.2753955126,-1.315210342
0.478,-0.4947378635,2.370537281,9.527400017,0.2255488932,0.2692694068,-1.314773917
0.48,-0.4850269556,2.352034807,9.499080658,0.2258630544,0.2633003592,-1.31491363
0.482,-0.4865401089,2.327355385,9.482293129,0.2260026783,0.2570869923,-1.314983368
0.484,-0.4783231914,2.301699162,9.453466415,0.2254267186,0.2504547536,-1.313744187
0.486,-0.4552335143,2.288780212,9.433662415,0.2251823843,0.243962124,-1.312609792
0.488,-0.4351030588,2.27832222,9.419986725,0.2260375917,0.2369109988,-1.311824322
0.49,-0.4182862043,2.275085449,9.393898964,0.2273291349,0.2270847857,-1.311196089
0.492,-0.3906475306,2.249448299,9.367189407,0.2284810543,0.2177298218,-1.310934305
0.494,-0.3736774325,2.245646238,9.358551979,0.2302263826,0.2117084414,-1.310515404
0.496,-0.3715800941,2.244180918,9.339838028,0.2337694019,0.2064200938,-1.309398413
0.498,-0.376014173,2.231855631,9.328403473,0.2386737764,0.2017251551,-1.306728005
0.5,-0.3776613772,2.220986128,9.309844017,0.243211627,0.1973094642,-1.304389238
0.502,-0.3833978772,2.199601173,9.301215172,0.2485174239,0.1913928092,-1.302486897
0.504,-0.3858878613,2.20698452,9.287615776,0.2547831535,0.1848827302,-1.299502373
0.506,-0.3806301951,2.204351187,9.252411842,0.2608045638,0.1784599125,-1.296709776
0.508,-0.3666097522,2.188530207,9.22723484,0.2673669755,0.1710946262,-1.294615388
0.51,-0.3563529551,2.184833527,9.197977066,0.2741388679,0.1640085876,-1.291875243
0.512,-0.3496683538,2.175630093,9.166163445,0.2800555229,0.1582664549,-1.288559079
0.514,-0.3406661749,2.158143044,9.138341904,0.2852915227,0.1521577984,-1.285312772
0.516,-0.3441712856,2.158631325,9.102199554,0.2909114659,0.1455604583,-1.282083988
0.518,-0.33551386,2.15024209,9.063489914,0.2966535985,0.139399454,-1.278890014
0.52,-0.3277566135,2.134143591,9.016745567,0.3018372357,0.1327846497,-1.276010156
0.522,-0.328915447,2.11400342,8.972998619,0.3067939878,0.1259953231,-1.27293849
0.524,-0.3277374804,2.087418318,8.933868408,0.3119601607,0.1188220158,-1.269168496
0.526,-0.3296624124,2.070179939,8.893147469,0.3166027367,0.1121025011,-1.265416026
0.528,-0.3431178331,2.046391249,8.850798607,0.3197443187,0.1058891267,-1.261995196
0.53,-0.3628077507,2.033146381,8.813401222,0.3222925067,0.09896016866,-1.258399844
0.532,-0.3861751854,2.023674965,8.778502464,0.324264735,0.09138543904,-1.254734635
0.534,-0.3962499797,1.993498564,8.736661911,0.3247534037,0.08358381689,-1.250702977
0.536,-0.4112855494,1.975532413,8.698785782,0.3246486783,0.07566002011,-1.246234894
0.538,-0.4329674244,1.954358101,8.650269508,0.3239680231,0.06770132482,-1.242203236
0.54,-0.4508090317,1.923358083,8.607834816,0.3224321306,0.06037093699,-1.238345981
0.542,-0.440485239,1.893928409,8.565026283,0.3208613396,0.05391322076,-1.234244466
0.544,-0.4543716013,1.864288211,8.538537025,0.3195872307,0.04749041051,-1.230369806
0.546,-0.4705468118,1.827082396,8.511626244,0.318121165,0.0392000936,-1.225954175
0.548,-0.463412106,1.787520528,8.484255791,0.3162536621,0.03139847144,-1.221643209
0.55,-0.4743296504,1.742499948,8.454759598,0.3132866025,0.0257086996,-1.217663884
0.552,-0.4857547879,1.698331833,8.437884331,0.3101973534,0.01928588748,-1.212899089
0.554,-0.4981567562,1.663395643,8.415245056,0.3082949519,0.01160643995,-1.208431005
0.556,-0.5088923573,1.637854218,8.38613224,0.3072128594,0.004712388851,-1.204085231
0.558,-0.5114972591,1.604277968,8.359077454,0.3064623475,-0.001867502346,-1.199163318
0.56,-0.4994017482,1.573957801,8.338544846,0.3048915565,-0.009616764262,-1.193683028
0.562,-0.4968256056,1.554641366,8.320041656,0.3029891551,-0.01717403904,-1.187033296
0.564,-0.5042380095,1.554823399,8.319573402,0.301261276,-0.02405063622,-1.180226564
0.566,-0.5037304759,1.538274527,8.315379143,0.3002489805,-0.03157300502,-1.174920797
0.568,-0.5164963603,1.515568018,8.304269791,0.2988876402,-0.04000294581,-1.169300795
0.57,-0.5141404271,1.509611249,8.296914101,0.2967583239,-0.04913101718,-1.162267089
0.572,-0.5146576166,1.497630596,8.302431107,0.2949431837,-0.05820672959,-1.15530324
0.574,-0.5097925663,1.495217323,8.304355621,0.2929360569,-0.06536258012,-1.148374319
0.576,-0.5123208761,1.496730328,8.28945446,0.2911732793,-0.07237880677,-1.141131163
0.578,-0.5189575553,1.485755324,8.274265289,0.289201051,-0.08155923337,-1.134394169
0.58,-0.5113823414,1.476801038,8.264544487,0.2874382734,-0.09159488231,-1.127238393
0.582,-0.5114780664,1.458365679,8.244252205,0.2860943675,-0.1019970402,-1.119576335
0.584,-0.5087008476,1.447668433,8.218402863,0.2849250138,-0.1131846011,-1.113624811
0.586,-0.5048221946,1.431387782,8.191301346,0.2841221392,-0.1250004768,-1.108039737
0.588,-0.4996890426,1.412914157,8.159296036,0.2834763825,-0.1364323944,-1.101669312
0.59,-0.5012500882,1.384624243,8.107705116,0.2829004228,-0.1473930478,-1.095927119
0.592,-0.5006754398,1.366428375,8.051174164,0.2833018303,-0.1597499847,-1.091371775
0.594,-0.5204132795,1.35355711,7.999171257,0.2847330272,-0.1729795784,-1.087619424
0.596,-0.5479465723,1.329260707,7.939393044,0.2859372795,-0.1862615347,-1.084530115
0.598,-0.5546311736,1.283981681,7.878216267,0.286740154,-0.1989326328,-1.081685305
0.6,-0.5939152241,1.24290669,7.82790947,0.2873859107,-0.2116560787,-1.079259276
0.602,-0.6228467822,1.199859023,7.776759624,0.2882934809,-0.2247285992,-1.077967644
0.604,-0.6382558346,1.158401012,7.731203079,0.2886425555,-0.23699826,-1.07679832
0.606,-0.6615466475,1.120084286,7.694859028,0.2884854674,-0.2486221492,-1.075384617
0.608,-0.6966360807,1.055115104,7.647568703,0.2884156704,-0.2593559325,-1.073848724
0.61,-0.6946536899,1.022008061,7.603467464,0.2886949182,-0.2697057426,-1.071981192
0.612,-0.698551476,0.9716053605,7.557460308,0.2881887555,-0.2799333632,-1.069939137
0.614,-0.7978724837,0.9097774625,7.568368435,0.2864085436,-0.2894454002,-1.067548037
0.616,-0.8299260736,0.8460246921,7.55446291,0.2844188511,-0.2983814776,-1.064982414
0.618,-0.8574115038,0.7947505116,7.490451813,0.2820277512,-0.3067416251,-1.062050343
0.62,-0.8610985875,0.7362552881,7.440058708,0.2788338065,-0.3152064681,-1.058646917
0.622,-0.8813630939,0.669303894,7.400458336,0.2750115395,-0.3246486783,-1.054109097
0.624,-0.8628798723,0.5991441607,7.346244335,0.2703166008,-0.3348065019,-1.048157454
0.626,-0.7360733747,0.5736219883,7.162043571,0.265237689,-0.3436727822,-1.042572379
0.628,-0.7590864301,0.5398924351,7.087421417,0.260961622,-0.3513871431,-1.037458658
0.63,-0.8820335269,0.4610562027,7.19244051,0.2563714087,-0.3592585623,-1.031594276
0.632,-1.010046601,0.3553857207,7.220347404,0.2510481477,-0.365611583,-1.02447331
0.634,-1.101332784,0.2448693663,7.194653034,0.2463357747,-0.3716853261,-1.017143011
0.636,-1.168485403,0.1488044262,7.2110672,0.2415884733,-0.3776194453,-1.00942862
0.638,-1.228263736,0.06508397311,7.214668274,0.2358637899,-0.3822445571,-1.000300527
0.64,-1.282775044,0.002959233243,7.194853783,0.2294409871,-0.386346072,-0.9905790687
0.642,-1.326138735,-0.04956955463,7.193312168,0.2230356187,-0.3899065554,-0.9809448719
0.644,-1.347418427,-0.0947720781,7.187038898,0.2175901979,-0.3941826224,-0.9713455439
0.646,-1.378504753,-0.142742306,7.16788578,0.2125287354,-0.3997153044,-0.9614320397
0.648,-1.402341485,-0.1922927052,7.150168419,0.2066818923,-0.4048116505,-0.952042222
0.65,-1.428476572,-0.2470050007,7.1361866,0.2005034238,-0.4097335041,-0.9434726238
0.652,-1.436214566,-0.2960382402,7.116381168,0.1945343912,-0.4139397442,-0.9339954853
0.654,-1.455780029,-0.3416238427,7.080631256,0.1895602047,-0.4175525606,-0.9238201976
0.656,-1.470317602,-0.4007797837,7.04206562,0.1865931451,-0.4224918485,-0.9149539471
0.658,-1.477892876,-0.4504929781,7.00618124,0.1847605556,-0.4273438752,-0.9069079757
0.66,-1.483983636,-0.4847013652,6.960078716,0.1821251065,-0.4327892959,-0.8982860446
0.662,-1.480353951,-0.5133360028,6.910432339,0.1791580468,-0.4394215345,-0.8887740374
0.664,-1.475546479,-0.5303348303,6.862308502,0.1766796857,-0.4465425014,-0.879209578
0.666,-1.469580173,-0.5418652892,6.833310127,0.1747249067,-0.453541249,-0.8702735305
0.668,-1.468833089,-0.568220675,6.774230957,0.1732937396,-0.4598593414,-0.8609534502
0.67,-1.441721201,-0.5885522366,6.713293552,0.1714611501,-0.4665439725,-0.8514763117
0.672,-1.427327275,-0.6210176349,6.592482567,0.1697507203,-0.473682344,-0.8419468403
0.674,-1.428428531,-0.6384091377,6.529064655,0.1684417278,-0.4810127318,-0.8320682645
0.676,-1.430133343,-0.6592195034,6.487070084,0.1675865203,-0.488081336,-0.8226783872
0.678,-1.4356879,-0.6689399481,6.463032722,0.1672374457,-0.4950800836,-0.8137946725
0.68,-1.439058781,-0.6958603263,6.416680813,0.1670978218,-0.5017123222,-0.8051378131
0.682,-1.457992196,-0.7357190847,6.34999752,0.1663996875,-0.5078733563,-0.7965682745
0.684,-1.478831291,-0.7717757225,6.316899776,0.1651779562,-0.513545692,-0.787702024
0.686,-1.498913884,-0.8218623996,6.290180683,0.1646718085,-0.5196368694,-0.7787309885
0.688,-1.510731697,-0.8428452015,6.273344517,0.1644798219,-0.5268625617,-0.7700392604
0.69,-1.534903526,-0.8974905014,6.21327877,0.1634500772,-0.5342103839,-0.7614347935
0.692,-1.5579741,-0.9423769712,6.177471161,0.1617571115,-0.5409997106,-0.7529001236
0.694,-1.580728531,-0.9747465253,6.142621517,0.1598197967,-0.5478588343,-0.7440513372
0.696,-1.60422051,-1.017028093,6.125785351,0.1571319848,-0.5550670624,-0.7341378331
0.698,-1.614448428,-1.034793139,6.124444485,0.1535191536,-0.5605299473,-0.7241021991
0.7,-1.626227975,-1.083721042,6.117865086,0.1491907388,-0.5652772188,-0.7152882814
0.702,-1.668701172,-1.179747701,6.128754139,0.1439722031,-0.5716302395,-0.7072772384
0.704,-1.681218028,-1.201707244,6.128217697,0.1377413869,-0.5780006647,-0.6989694834
0.706,-1.70051527,-1.244065523,6.139776707,0.1301492006,-0.5843886137,-0.6889512539
0.708,-1.732750893,-1.319731832,6.146107197,0.1232726052,-0.5901481509,-0.6798232198
0.71,-1.745746613,-1.354217887,6.152150154,0.1179493517,-0.5943718553,-0.6723357439
0.712,-1.8027668,-1.452035427,6.226983547,0.1113694608,-0.5976880193,-0.6635916233
0.714,-1.826833367,-1.486990809,6.254966736,0.1039518118,-0.6012310386,-0.6549871564
0.716,-1.873606443,-1.553310156,6.298340321,0.09651670605,-0.605838716,-0.6467491984
0.718,-1.911319971,-1.598589301,6.342182636,0.08969247341,-0.6099227667,-0.6373942494
0.72,-1.948545098,-1.654422164,6.37351799,0.08313003182,-0.6144257188,-0.6272713542
0.722,-1.935051322,-1.714344263,6.382472515,0.0757298395,-0.6197314858,-0.6162233949
0.724,-1.927437782,-1.741599679,6.383880138,0.0676664114,-0.6250373125,-0.6041457057
0.726,-1.918751597,-1.755428672,6.375289917,0.05932373926,-0.6300464272,-0.5919632912
0.728,-1.900603533,-1.772552013,6.346070766,0.05120795965,-0.6349333525,-0.5791177154
0.73,-1.890059471,-1.778432131,6.314132214,0.04379031062,-0.6406928897,-0.5659928322
0.732,-1.859030604,-1.779811263,6.278487206,0.0372976847,-0.6468364596,-0.5537056923
0.734,-1.84205091,-1.777637362,6.259659767,0.03213151172,-0.6528055072,-0.5414534807
0.736,-1.810916781,-1.771594405,6.225642681,0.02878047898,-0.6587046981,-0.5288870931
0.738,-1.786448002,-1.764507413,6.185420036,0.02614503168,-0.6636440158,-0.5168268681
0.74,-1.755802155,-1.758004904,6.140322685,0.02474876866,-0.6675360799,-0.5052902699
0.742,-1.727464318,-1.750793457,6.081377506,0.02450442314,-0.6710267067,-0.4942772388
0.744,-1.70810008,-1.749644279,5.995655537,0.02534218132,-0.6740112305,-0.4841194153
0.746,-1.699088335,-1.75535202,5.933310509,0.02822197415,-0.6768212318,-0.4736649096
0.748,-1.69225049,-1.756520391,5.897589207,0.03190461919,-0.6798406243,-0.4627740383
0.75,-1.686753392,-1.752095938,5.826251507,0.03499384969,-0.6832963824,-0.4520402849
0.752,-1.675050497,-1.738975763,5.759300232,0.03844960406,-0.6875375509,-0.4413588643
0.754,-1.666824102,-1.73885119,5.664872646,0.04207988828,-0.6905220747,-0.4310090542
0.756,-1.674131274,-1.761098146,5.615954399,0.045448374,-0.6923720837,-0.4207988679
0.758,-1.681342483,-1.769707799,5.596618652,0.04871213809,-0.6962816715,-0.4106410742
0.76,-1.684129357,-1.805563211,5.56505394,0.05192354321,-0.7010289431,-0.4020889401
0.762,-1.687078953,-1.844090819,5.557957649,0.05544910952,-0.7054795623,-0.3942000568
0.764,-1.685632944,-1.916529775,5.559039593,0.05909684673,-0.7110820413,-0.3849847317
0.766,-1.707238197,-1.984812379,5.571374416,0.06373942643,-0.7174699306,-0.3758741021
0.768,-1.703436136,-2.052386284,5.564804554,0.06878342479,-0.7244861722,-0.3674267232
0.77,-1.697355032,-2.082696915,5.558206081,0.07335618883,-0.7320783734,-0.3589269519
0.772,-1.748839855,-2.155250788,5.577771664,0.07869689912,-0.7405257225,-0.3501130342
0.774,-1.781276464,-2.284145117,5.608226299,0.08527678996,-0.7502821088,-0.3411595225
0.776,-1.796082258,-2.361343861,5.577666283,0.09143780172,-0.760579586,-0.3318220079
0.778,-1.803015828,-2.389058828,5.573069572,0.09615018964,-0.7713831663,-0.321716547
0.78,-1.819191098,-2.449613094,5.570502758,0.1009149402,-0.7814711928,-0.3119252324
0.782,-1.849616528,-2.495074272,5.560590744,0.1053829789,-0.7909483314,-0.3016278148
0.784,-1.867582679,-2.537480116,5.539646626,0.10939724,-0.8011060953,-0.2911209166
0.786,-1.884026051,-2.582721233,5.516786575,0.113254413,-0.8109323382,-0.2814692557
0.788,-1.912823439,-2.609536171,5.510724545,0.1163960099,-0.8202872872,-0.27249825
0.79,-1.911540151,-2.639789343,5.517724991,0.1202008277,-0.8291535378,-0.2634749115
0.792,-1.933729649,-2.658732176,5.537098885,0.1245990545,-0.8368679285,-0.2538057864
0.794,-1.940136552,-2.677905083,5.571603775,0.1301666498,-0.8431510925,-0.2448173314
0.796,-1.939226866,-2.662783146,5.597805977,0.1359087825,-0.8479332924,-0.2373822331
0.798,-1.930914044,-2.652402163,5.614747524,0.1395041645,-0.8504989147,-0.2302438319
0.8,-1.919105887,-2.636150122,5.628193378,0.1435009688,-0.8531343937,-0.2222851366
0.802,-1.906560302,-2.607754946,5.633795738,0.148911491,-0.8583005667,-0.2133664936
0.804,-1.883422732,-2.572100401,5.642510891,0.153327167,-0.863571465,-0.20343557
0.806,-1.844856977,-2.532174826,5.647682667,0.1560673416,-0.8679172993,-0.1930683255
0.808,-1.785873413,-2.491444588,5.64341116,0.1574985087,-0.871268332,-0.1822298318
0.81,-1.72090435,-2.446414471,5.64131403,0.1580744684,-0.8732580543,-0.1714960486
0.812,-1.66291678,-2.389882565,5.626307011,0.1580046564,-0.8756491542,-0.1620712727
0.814,-1.570529342,-2.295665979,5.605707169,0.1570272744,-0.879139781,-0.1535017043
0.816,-1.509783626,-2.242074251,5.59982729,0.1547234356,-0.8818275928,-0.1446528882
0.818,-1.473161817,-2.220612526,5.597643375,0.1522101611,-0.8835554719,-0.1359960586
0.82,-1.411554337,-2.191738605,5.601780891,0.1505695581,-0.8842536211,-0.1280548126
0.822,-1.336002827,-2.175764322,5.598083973,0.1483180821,-0.8832762241,-0.1204102635
0.824,-1.257405996,-2.157051325,5.603466511,0.1467647403,-0.8816181421,-0.112242125
0.826,-1.232602,-2.156122208,5.611204147,0.146136418,-0.8799949884,-0.103550382
0.828,-1.189142585,-2.160776615,5.626019478,0.1455604583,-0.8790176511,-0.09527752548
0.83,-1.150155425,-2.191470146,5.623529911,0.1456477195,-0.8783195019,-0.08780751377
0.832,-1.116310954,-2.219539881,5.631171703,0.1456826329,-0.8777086139,-0.08035495877
0.834,-1.080187082,-2.278849125,5.651264191,0.1460142434,-0.8761901855,-0.07227408141
0.836,-1.03315556,-2.357848167,5.655017853,0.1467821896,-0.8736943603,-0.06455972791
0.838,-1.021596313,-2.394517899,5.666577816,0.1470789015,-0.8720362782,-0.05668829381
0.84,-0.9961698651,-2.462532282,5.682541847,0.1472185254,-0.8688423634,-0.0484328866
0.842,-0.9767289162,-2.524111032,5.681584358,0.1482133567,-0.8640601635,-0.04127703607
0.844,-0.9638960361,-2.601817369,5.709375858,0.1498888731,-0.8599062562,-0.03394665569
0.846,-0.9196320176,-2.72312665,5.771922588,0.1521403491,-0.855700016,-0.02560397983
0.848,-0.9084271789,-2.812162399,5.81536293,0.1549503356,-0.8524013758,-0.01747074537
0.85,-0.9068661332,-2.855391979,5.834640503,0.1579872072,-0.8498008251,-0.01005309634
0.852,-0.896168828,-2.928300381,5.875840187,0.1623854339,-0.8471653461,-0.002617993858
0.854,-0.8744678497,-3.000260353,5.922460079,0.1685988009,-0.8441982865,0.00575958658
0.856,-0.8596907854,-3.060881615,5.959675789,0.1755452156,-0.8417199254,0.01485275198
0.858,-0.8590491414,-3.114904404,5.992418766,0.1834166497,-0.8413534164,0.0245567821
0.86,-0.8377790451,-3.147733688,6.034000874,0.1913578957,-0.8424530029,0.03481931984
0.862,-0.8260761499,-3.164981365,6.051546097,0.1986882836,-0.8444949985,0.0453087464
0.864,-0.8217187524,-3.181846142,6.078236103,0.2057743222,-0.8465719223,0.05651376024
0.866,-0.8149862885,-3.186260939,6.093358517,0.2121447772,-0.8486837745,0.06834709644
0.868,-0.8043464422,-3.196029425,6.118794441,0.2175727487,-0.8524013758,0.08136724681
0.87,-0.8027949929,-3.20523262,6.15879631,0.222616747,-0.8564156294,0.09613273293
0.872,-0.8088954091,-3.205788136,6.19810915,0.2272069603,-0.8602727652,0.1109854877
0.874,-0.8094221354,-3.218238115,6.250216961,0.2293711752,-0.8637285233,0.1258731484
0.876,-0.8183093667,-3.216475725,6.290123463,0.2305754423,-0.8670446873,0.1407608092
0.878,-0.8208855391,-3.233944178,6.32118082,0.2317099124,-0.8705877066,0.1556659192
0.88,-0.8108682036,-3.255702496,6.346262932,0.2312212139,-0.8729788065,0.1715134978
0.882,-0.7956219316,-3.26528883,6.365282059,0.2300692946,-0.8749160767,0.1877450645
0.884,-0.7702434063,-3.253739357,6.380135536,0.2286555916,-0.8769581318,0.2035228461
0.886,-0.7463971376,-3.224721432,6.393677235,0.2264913768,-0.8790525198,0.2187770158
0.888,-0.715674758,-3.195617676,6.394462585,0.2243620753,-0.881164372,0.2335076034
0.89,-0.6702136993,-3.168888569,6.391695023,0.2222327739,-0.8836078644,0.2476971298
0.892,-0.6267541647,-3.138223886,6.383592606,0.2194577008,-0.8864876032,0.2607522011
0.894,-0.5893566608,-3.10806632,6.372158051,0.2164382786,-0.8886169195,0.2726902366
0.896,-0.5382931232,-3.088615894,6.367379189,0.2133315951,-0.8901004791,0.284488678
0.898,-0.480602473,-3.074576378,6.336829662,0.2110975683,-0.8941845298,0.296548903
0.9,-0.4143788517,-3.065756083,6.300332069,0.2095791399,-0.8996299505,0.3083996773
0.902,-0.3643017411,-3.066397667,6.251432896,0.208008334,-0.9034347534,0.319534868
0.904,-0.3131998777,-3.08444047,6.200858116,0.2070484012,-0.9065589309,0.3300766647
0.906,-0.2632855773,-3.105212688,6.153385639,0.2063328177,-0.9100320935,0.3397283256
0.908,-0.2172690183,-3.109167814,6.109906673,0.2057394087,-0.9149190187,0.3486993313
0.91,-0.1867477298,-3.109177351,6.060260773,0.2054950595,-0.9210102558,0.3570943773
0.912,-0.1541482806,-3.092877626,6.025688648,0.2057045102,-0.9269618392,0.3643025756
0.914,-0.1165497378,-3.076415062,6.013947487,0.2064200938,-0.932546854,0.3710221052
0.916,-0.08712979406,-3.072823763,5.995080948,0.2076592743,-0.9382889867,0.3778637946
0.918,-0.07715075463,-3.060728312,5.986366272,0.2094395161,-0.9444150925,0.3837979138
0.92,-0.08846096694,-3.060632467,5.980064392,0.2107834071,-0.9500699639,0.389051348
0.922,-0.1061972156,-3.072507858,5.970775127,0.2119702399,-0.9548870921,0.3946712911
0.924,-0.1317385584,-3.090847492,5.995406628,0.2143438905,-0.959058404,0.4001167417
0.926,-0.1477509737,-3.105930805,6.006535053,0.2181487083,-0.9623396397,0.4054749012
0.928,-0.1817582101,-3.135044336,6.035226822,0.2225469351,-0.9652543664,0.4111297429
0.93,-0.2059013546,-3.185916185,6.071733952,0.2271720618,-0.9667553306,0.4175525606
0.932,-0.2524925172,-3.289747953,6.159151077,0.2315702885,-0.9661095738,0.4236263037
0.934,-0.2704681754,-3.33877182,6.196002483,0.2362128645,-0.962374568,0.4292637408
0.936,-0.3132477701,-3.428372383,6.273804188,0.2415710241,-0.9564229846,0.4356516302
0.938,-0.3455503583,-3.508683443,6.356816292,0.247854203,-0.9508553743,0.4420395494
0.94,-0.364320904,-3.589865923,6.434962749,0.2538930476,-0.9460557103,0.4474849701
0.942,-0.3770771921,-3.650228739,6.510667324,0.2598097026,-0.9399994016,0.4525464177
0.944,-0.3759854436,-3.71207571,6.57521534,0.2691646814,-0.9312204123,0.4605923891
0.946,-0.3519955575,-3.765169382,6.633959293,0.2796017528,-0.9219701886,0.4708200097
0.948,-0.3159101307,-3.805535555,6.673176289,0.2885901928,-0.9122138023,0.4812919796
0.95,-0.3055671751,-3.877160549,6.742771149,0.2969852388,-0.9012880325,0.4921828508
0.952,-0.2865667939,-3.902558327,6.773684978,0.3038618267,-0.8911651373,0.5013458133
0.954,-0.2466219366,-3.935311079,6.827171326,0.3117158115,-0.8772548437,0.5126555562
0.956,-0.1969183087,-3.955039263,6.863161087,0.3205995262,-0.8595920801,0.5270545483
0.958,-0.1499727964,-3.978023767,6.936452866,0.327999711,-0.8426275253,0.5404760838
0.96,-0.1191354766,-3.999475479,7.012952328,0.3332182467,-0.8275129795,0.5510004163
0.962,-0.06153098121,-4.001841068,7.074032784,0.3369358182,-0.8131489158,0.5603379607
0.964,-0.01694137231,-3.98674798,7.126111507,0.340967536,-0.7943691611,0.573602438
0.966,0.02731305361,-3.968935251,7.174723148,0.3438647687,-0.7740884423,0.5878269076
0.968,0.0767198056,-3.944964409,7.206422806,0.3453657627,-0.7557449937,0.6012135744
0.97,0.1406258196,-3.916531086,7.230335712,0.3462907672,-0.741014421,0.6132737994
0.972,0.2023675144,-3.874230146,7.232988834,0.3457148075,-0.7287098765,0.6244962811
0.974,0.2764057815,-3.829717159,7.217023849,0.343585521,-0.715480268,0.6394886374
0.976,0.3569658995,-3.780004025,7.194346428,0.3401995897,-0.7031582594,0.6563135982
0.978,0.4195503294,-3.746264935,7.167512417,0.335347563,-0.6937334538,0.671061635
0.98,0.4766281247,-3.715255022,7.14356041,0.3305304646,-0.6873630285,0.6827553511
0.982,0.5280172825,-3.709480286,7.115509987,0.3257308006,-0.6828775406,0.6931924224
0.984,0.5690059662,-3.694061756,7.085668564,0.3174579442,-0.6794741154,0.7062649131
0.986,0.6175699234,-3.700535536,7.067262173,0.3068463206,-0.6774495244,0.7207511663
0.988,0.6550344229,-3.710648775,7.04620266,0.2984164059,-0.6779033542,0.7316944003
0.99,0.696521163,-3.726565361,7.015604973,0.2911907434,-0.6806085706,0.7405606508
0.992,0.7331715822,-3.736496687,6.992017269,0.2825688124,-0.6845530272,0.7504915595
0.994,0.7639131546,-3.767975569,6.949218273,0.2727600634,-0.6908885837,0.7611555457
0.996,0.8064532876,-3.787722826,6.907492161,0.2621310055,-0.6985156536,0.7718194723
0.998,0.8586086631,-3.807633162,6.874366283,0.2530727386,-0.704467237,0.7799353004
1.0,0.9093752503,-3.832503796,6.844668388,0.2458994389,-0.7103490233,0.7864104509
1.002,0.9597876072,-3.86777544,6.801678181,0.2376265824,-0.718115747,0.7934615612
1.004,1.017296314,-3.910698652,6.770218372,0.2279399931,-0.7275928855,0.7994829416
1.006,1.081834316,-3.957069635,6.772976398,0.2161066681,-0.7374539375,0.806045413
1.008,1.146267176,-4.029680729,6.801678181,0.2034006715,-0.745883882,0.8134456277
1.01,1.187102675,-4.105079174,6.828493118,0.1938013583,-0.7518354654,0.8189783096
1.012,1.201965809,-4.169291496,6.873015404,0.1861219108,-0.7570888996,0.8250171542
1.014,1.187351704,-4.200607777,6.944104671,0.176993832,-0.7633371949,0.8325394988
1.016,1.181892872,-4.234461784,7.010471821,0.1663298756,-0.770301044,0.8415803313
1.018,1.195769668,-4.283159733,7.109323025,0.1569400132,-0.7766191363,0.8506385684
1.02,1.201812625,-4.323583603,7.171400547,0.1493303776,-0.7798131108,0.8587368727
1.022,1.203517318,-4.349929333,7.196481705,0.1421221644,-0.7814188004,0.8674111962
1.024,1.218993425,-4.359438896,7.260196209,0.1363625675,-0.7830244899,0.8762949109
1.026,1.233569384,-4.356067657,7.331534386,0.13243559,-0.784630239,0.8878141046
1.028,1.248547435,-4.332058907,7.394194603,0.1305157244,-0.7846476436,0.9003804326
1.03,1.276348829,-4.300388813,7.458484173,0.1306902468,-0.7830768824,0.9108698964
1.032,1.295761108,-4.262368679,7.531392574,0.1320167035,-0.7824485302,0.9195616245
1.034,1.317404628,-4.225517273,7.592904091,0.1344427168,-0.7802843451,0.9281486273
1.036,1.349171042,-4.194248676,7.664557934,0.1382824332,-0.7759384513,0.9404706359
1.038,1.386463046,-4.160011768,7.730695248,0.1445830762,-0.7710166574,0.9543285966
1.04,1.408978105,-4.123916626,7.795693398,0.152506873,-0.7642796636,0.9665982723
1.042,1.443243861,-4.091575623,7.871599197,0.1592089385,-0.7574205399,0.976965487
1.044,1.488053799,-4.060125351,7.996221542,0.1660331786,-0.7511722445,0.987175703
1.046,1.505675197,-4.047101021,8.031599045,0.1767145842,-0.7426201701,1.002063274
1.048,1.545026302,-4.005317211,8.081139565,0.1879894137,-0.7341029048,1.016654253
1.05,1.604239583,-3.971760273,8.132892609,0.198269397,-0.7268423438,1.028592348
1.052,1.656299233,-3.940051556,8.183802605,0.210032925,-0.7178888321,1.041961551
1.054,1.708856702,-3.904387474,8.219639778,0.2233323306,-0.7072947025,1.055941701
1.056,1.754183769,-3.884908199,8.254364014,0.240436554,-0.6944665313,1.072661877
1.058,1.799242496,-3.874479294,8.286427498,0.259390831,-0.6803991795,1.090534091
1.06,1.842778683,-3.857212067,8.307889938,0.2743657529,-0.6690021753,1.103484392
1.062,1.87646997,-3.855449915,8.317877769,0.2874033749,-0.6586698294,1.114741802
1.064,1.913398027,-3.855220318,8.326889992,0.3025004566,-0.6462605,1.128163338
1.066,1.941726327,-3.869805574,8.332760811,0.3209486008,-0.631739378,1.144360065
1.068,1.960621357,-3.887982368,8.348706245,0.3407755494,-0.616677165,1.161691189
1.07,1.975934744,-3.922430277,8.375989914,0.3560995162,-0.6042329669,1.175060391
1.072,2.011656046,-3.959750891,8.412708282,0.369276762,-0.5934817791,1.186492324
1.074,2.038902283,-3.991670609,8.437330246,0.3828554153,-0.581543684,1.199355364
1.076,2.072708368,-4.014233589,8.433469772,0.3987902701,-0.5671970844,1.214382648
1.078,2.099226475,-4.041642189,8.411558151,0.4141142666,-0.5544213057,1.227751851
1.08,2.116876364,-4.067853928,8.375367165,0.424778223,-0.5438620448,1.238555431
1.082,2.125533819,-4.097130299,8.335681915,0.4347964227,-0.5329188108,1.250214219
1.084,2.140914202,-4.126540661,8.290076256,0.444552809,-0.5234242678,1.261279583
1.086,2.145300627,-4.160356522,8.240334511,0.4551644027,-0.5138772726,1.272414804
1.088,2.138951063,-4.19848156,8.184434891,0.4648335278,-0.5049412251,1.281036735
1.09,2.150653839,-4.232239723,8.144490242,0.4719370306,-0.4975235462,1.286447287
1.092,2.155040026,-4.262943268,8.123334885,0.4798782766,-0.4910309315,1.291805387
1.094,2.147292376,-4.285975456,8.109477043,0.4881511331,-0.4864930809,1.296517849
1.096,2.141670942,-4.295035362,8.109908104,0.4956386089,-0.4827406108,1.301265121
1.098,2.146344423,-4.31377697,8.121889114,0.5021486878,-0.4802797139,1.305104852
1.1,2.168390036,-4.321534157,8.144777298,0.5079606175,-0.4789532423,1.306972384
1.102,2.193069696,-4.310874939,8.172377586,0.5128475428,-0.4768413901,1.308996916
1.104,2.203814745,-4.295245647,8.209698677,0.5167222023,-0.4747121036,1.311719656
1.106,2.216762781,-4.280354023,8.248216629,0.5198812485,-0.4738568962,1.314407468
1.108,2.23495841,-4.267501831,8.271219254,0.5211727619,-0.4738045335,1.317706108
1.11,2.240666151,-4.26454258,8.301769257,0.5207538605,-0.473158747,1.320638299
1.112,2.240254641,-4.249047279,8.339205742,0.5199510455,-0.4703836739,1.322767615
1.114,2.235906839,-4.243933201,8.371364594,0.5199335814,-0.4660901725,1.325211048
1.116,2.241442204,-4.246815681,8.392835617,0.5186769366,-0.4618141055,1.329050779
1.118,2.241106987,-4.239480019,8.416585922,0.5156226158,-0.458183825,1.33313489
1.12,2.23247838,-4.230018139,8.456406593,0.512498498,-0.4557578266,1.336381197
1.122,2.234067917,-4.207895279,8.514910698,0.5086936355,-0.4541346729,1.340535045
1.124,2.266236305,-4.183972836,8.558839798,0.5036845803,-0.453471452,1.345072865
1.126,2.284422874,-4.167040825,8.603467941,0.4981693327,-0.4525813162,1.351338625
1.128,2.301000357,-4.126847267,8.651255608,0.4933871329,-0.4509581625,1.358302474
1.13,2.317453146,-4.089727402,8.708745956,0.4873482883,-0.4499807954,1.364620566
1.132,2.34321475,-4.062031269,8.779375076,0.479529202,-0.4492652118,1.371601939
1.134,2.377394199,-4.031165123,8.860519409,0.4725478888,-0.4483401775,1.379176617
1.136,2.41169858,-4.00199461,8.955425262,0.464030683,-0.4473278821,1.388583899
1.138,2.452562809,-3.984669924,9.057639122,0.4555134773,-0.4459665418,1.397450209
1.14,2.492153406,-3.965085268,9.154143333,0.4488812387,-0.4454254806,1.404850364
1.142,2.527750254,-3.939208746,9.267744064,0.442091912,-0.4458268881,1.411657214
1.144,2.568537951,-3.924891472,9.375770569,0.4358436167,-0.4460014403,1.418533802
1.146,2.623748302,-3.898354292,9.483374596,0.4295255244,-0.4447971582,1.426684499
1.148,2.68427372,-3.876327276,9.591086388,0.4234692454,-0.4427376688,1.435690403
1.15,2.762794018,-3.858974457,9.713802338,0.4172209501,-0.4412541389,1.444417
1.152,2.853419304,-3.844197273,9.855079651,0.4093146026,-0.4397182465,1.453318238
1.154,2.950834513,-3.84436965,9.994565964,0.4004134238,-0.4384616017,1.462952375
1.156,3.053220034,-3.83594203,10.14607143,0.3911108375,-0.4360530674,1.472237587
1.158,3.158526659,-3.824631929,10.277915,0.382907778,-0.4319166243,1.481068969
1.16,3.278246403,-3.831306934,10.41363811,0.3760835528,-0.4277103841,1.488765836
1.162,3.375786066,-3.832992315,10.5639267,0.3688927889,-0.4228409231,1.495677352
1.164,3.463250875,-3.837196589,10.66454029,0.361859113,-0.4154930711,1.50197804
1.166,3.542096853,-3.842282057,10.74666214,0.357740134,-0.406504631,1.507056952
1.168,3.609757185,-3.850182772,10.83444214,0.3563787639,-0.396835506,1.511018753
1.17,3.692328453,-3.850853205,10.88822556,0.3555061221,-0.3865904212,1.513898611
1.172,3.76740098,-3.865649462,10.93259525,0.3548429012,-0.3761184514,1.515382171
1.174,3.839629173,-3.883816719,10.96122074,0.355191946,-0.3655417562,1.515992999
1.176,3.913504601,-3.887417555,10.98655033,0.3562915027,-0.3539702296,1.516237378
1.178,3.975581646,-3.89749217,10.99288082,0.357670337,-0.3410547972,1.514439583
1.18,4.030619621,-3.914998531,10.97972298,0.3591887653,-0.3288549483,1.510233402
1.182,4.069050789,-3.926203251,10.96283913,0.3613878787,-0.3175801039,1.505363941
1.184,4.10751152,-3.937465906,10.9304409,0.3635346293,-0.3076142669,1.499604344
1.186,4.120669842,-3.948498249,10.86690807,0.3647389114,-0.2975611687,1.492204189
1.188,4.132708073,-3.950777531,10.81491566,0.3655417562,-0.287787348,1.48445487
1.19,4.130812168,-3.944073677,10.75299263,0.366501689,-0.2812947035,1.478782535
1.192,4.121331215,-3.924316883,10.68981361,0.3678281307,-0.2773851752,1.473948002
1.194,4.111485958,-3.899455547,10.62285233,0.3677408695,-0.2761110961,1.468502522
1.196,4.090167999,-3.869614124,10.54432297,0.36613518,-0.2771582901,1.462812781
1.198,4.070707798,-3.842377663,10.4787693,0.3648436368,-0.2785370946,1.45703578
1.2,4.049638748,-3.802317858,10.42250633,0.3617892861,-0.2813121676,1.452148795
1.202,4.04872942,-3.755487204,10.36664486,0.355191946,-0.2859198451,1.448588371
1.204,4.04278183,-3.70604229,10.30985355,0.3468143642,-0.2903180718,1.445865631
1.206,4.020486832,-3.669142723,10.25944138,0.3370928764,-0.2952573597,1.444137812
1.208,3.99919796,-3.618950605,10.21891212,0.3255562782,-0.3004235327,1.443736315
1.21,3.98691082,-3.5838902,10.17183304,0.3120299578,-0.305380255,1.444539189
1.212,3.964721441,-3.55653882,10.11905575,0.2970550358,-0.312117219,1.445167542
1.214,3.928013325,-3.496492147,10.09506512,0.2821150124,-0.3196046948,1.445743442
1.216,3.914855003,-3.465051413,10.07459927,0.2678382397,-0.3261147738,1.446930289
1.218,3.910430431,-3.453817844,10.06860447,0.2534916103,-0.3316125572,1.448029876
1.22,3.918245077,-3.440439224,10.06340408,0.2388134003,-0.3363772929,1.449757695
1.222,3.931125879,-3.430546284,10.08112144,0.2252696455,-0.3417878151,1.452654958
1.224,3.938327551,-3.422434807,10.10209465,0.2131221592,-0.3465176821,1.456058383
1.226,3.92552352,-3.417943001,10.1315527,0.2015506178,-0.348751694,1.459636331
1.228,3.903353214,-3.422176123,10.17815304,0.1899092793,-0.3506017327,1.463947296
1.23,3.884218693,-3.429224491,10.23463726,0.1788438857,-0.3538829684,1.469165802
1.232,3.875379324,-3.440247536,10.31111813,0.1692969352,-0.3577575982,1.475396633
1.234,3.877984285,-3.459535122,10.39749146,0.1597325355,-0.3618416488,1.482028842
1.236,3.85934782,-3.488792419,10.48275375,0.150778994,-0.366047889,1.488521457
1.238,3.855852365,-3.509880543,10.57312012,0.1436755061,-0.3693291247,1.495275974
1.24,3.872084856,-3.532768965,10.68257332,0.1373050511,-0.3722438216,1.50243175
1.242,3.88465929,-3.554450989,10.80439091,0.132505402,-0.3753156066,1.509133816
1.244,3.905029058,-3.571507215,10.92125702,0.1289623827,-0.3778463304,1.515347242
1.246,3.902376413,-3.594530106,11.03339195,0.126588732,-0.380132705,1.521962047
1.248,3.900192976,-3.61534977,11.13477135,0.1246688664,-0.3816860616,1.52939713
1.25,3.881374598,-3.649481773,11.23256969,0.1229409948,-0.3810577393,1.536535501
1.252,3.866846323,-3.672762871,11.32771492,0.1219112501,-0.3801676035,1.54259181
1.254,3.856340647,-3.675836802,11.41633892,0.1211782098,-0.3791902363,1.548211813
1.256,3.85733676,-3.673988819,11.51022053,0.1202531829,-0.3756297529,1.554285526
1.258,3.859663725,-3.654892683,11.60469532,0.1189267337,-0.3707079291,1.560551286
1.26,3.866721869,-3.619783878,11.69333839,0.11838568,-0.3649134338,1.566572666
1.262,3.884391069,-3.570109129,11.79048538,0.1184904054,-0.3600265086,1.571861029
1.264,3.918379068,-3.522263527,11.88880062,0.1185253114,-0.3567802012,1.576224327
1.266,3.958180428,-3.479761362,11.97739601,0.1182285994,-0.3510380685,1.580517769
1.268,4.007730961,-3.447621822,12.04160881,0.1190489084,-0.3430095613,1.584793806
1.27,4.055519104,-3.417215347,12.11264896,0.1206546128,-0.3350159526,1.58810997
1.272,4.105175018,-3.398540497,12.17488003,0.123516947,-0.3263940215,1.590099692
1.274,4.164435863,-3.375680685,12.22824097,0.1281420738,-0.3181560636,1.59186244
1.276,4.215959549,-3.353098631,12.27348232,0.1325577497,-0.3100577295,1.593520522
1.278,4.269532204,-3.327002048,12.30048943,0.1375144869,-0.3010867536,1.594515324
1.28,4.327146053,-3.297045708,12.3096447,0.1436405927,-0.2923775613,1.594916821
1.282,4.366257668,-3.278179169,12.29308605,0.1495921761,-0.2844188511,1.595073819
1.284,4.398243904,-3.245914936,12.25842762,0.1548630595,-0.2770710289,1.594829559
1.286,4.430364609,-3.222681522,12.19308472,0.1598547101,-0.2696708143,1.594096422
1.288,4.449403763,-3.201133728,12.10637665,0.1650383323,-0.2625498772,1.59379971
1.29,4.455887318,-3.174452782,12.01918983,0.1693492979,-0.2549227774,1.594305873
1.292,4.469667912,-3.142801523,11.90136623,0.172054559,-0.2464404851,1.594515324
1.294,4.480892181,-3.115909815,11.7909174,0.1741140485,-0.2389006615,1.594288468
1.296,4.475653648,-3.084162951,11.69067574,0.175580129,-0.2320240736,1.59355545
1.298,4.459880829,-3.032371283,11.60069275,0.1764876992,-0.2248158604,1.59231627
1.3,4.449968815,-2.981882572,11.51669407,0.1777966917,-0.2171538621,1.591495872
1.302,4.437633991,-2.920983553,11.45620728,0.1789660603,-0.2096140385,1.590850115
1.304,4.422732353,-2.854491711,11.42927742,0.1794547588,-0.2021265775,1.590256691
1.306,4.419246197,-2.811990023,11.40728951,0.1799608916,-0.1940282583,1.590658188
1.308,4.401060104,-2.789110899,11.37825203,0.181112811,-0.1866280586,1.591129422
1.31,4.37881279,-2.756137848,11.34541321,0.1831548512,-0.1804495901,1.591321349
1.312,4.357619762,-2.713693619,11.30883026,0.1843067706,-0.1744631082,1.592036963
1.314,4.32921505,-2.660178423,11.27975464,0.1841496825,-0.1673072577,1.594218612
1.316,4.285506248,-2.594979525,11.25384998,0.1840798706,-0.1605877429,1.597011209
1.318,4.2326231,-2.5303936,11.21725559,0.1846732944,-0.1553343087,1.599402308
1.32,4.187621593,-2.470241547,11.1660881,0.1852492392,-0.1491034776,1.602264643
1.322,4.147255421,-2.4056077,11.10777473,0.1854761392,-0.1424537748,1.605650544
1.324,4.105940819,-2.354563236,11.05450821,0.1865058839,-0.1372177899,1.609228492
1.326,4.074490547,-2.302111149,11.00035191,0.1872563809,-0.1332035214,1.612893701
1.328,4.03508234,-2.242830753,10.96315575,0.1881814003,-0.129660517,1.616907954
1.33,3.989745617,-2.184680462,10.94131947,0.1901361644,-0.1256986111,1.621079206
1.332,3.961168528,-2.154848576,10.93185806,0.1921956539,-0.1218763441,1.625302911
1.334,3.920572281,-2.13322401,10.92342091,0.1952499896,-0.1193805188,1.629544139
1.336,3.8866992,-2.112633944,10.9039135,0.1996482164,-0.1170941368,1.633785248
1.338,3.849091053,-2.087265253,10.87073803,0.2045874894,-0.1142841578,1.637729645
1.34,3.805507183,-2.069279671,10.83657837,0.2094395161,-0.1118581519,1.641551971
1.342,3.761453629,-2.045672894,10.80418968,0.2145707756,-0.1102524474,1.645618558
1.344,3.717438698,-2.013945103,10.76323891,0.2210808545,-0.1077042669,1.65012157
1.346,3.682416201,-1.953630209,10.71880245,0.2272069603,-0.1041437984,1.654170752
1.348,3.667830706,-1.888086677,10.68547535,0.2322160602,-0.1007927656,1.658342004
1.35,3.652852774,-1.826593995,10.6546669,0.2377312928,-0.09595820308,1.66319406
1.352,3.642710924,-1.767227292,10.62926006,0.2434559762,-0.08957029879,1.668011189
1.354,3.643400431,-1.689521074,10.60118103,0.2492504716,-0.08223991096,1.673439145
1.356,3.655199051,-1.623747587,10.55874538,0.2560397983,-0.07421139628,1.678483129
1.358,3.668462992,-1.559717059,10.52294731,0.2622706294,-0.06808529049,1.682130933
1.36,3.696752787,-1.506747842,10.49462891,0.2666863203,-0.06339035928,1.684556842
1.362,3.728825331,-1.470193148,10.47560978,0.2741737664,-0.05832890421,1.686162591
1.364,3.80725956,-1.442583084,10.46625328,0.2870194018,-0.04932300374,1.688082457
1.366,3.897578478,-1.393281698,10.45360184,0.2972819209,-0.0327074714,1.68949616
1.368,3.972536087,-1.347447157,10.45297909,0.2995683253,-0.01427679323,1.689443827
1.37,4.055672169,-1.313305736,10.4912672,0.2967234254,-0.001082104165,1.689426303
1.372,4.149371624,-1.270851851,10.5291338,0.291452527,0.005218534265,1.689723015
1.374,4.254831314,-1.214243293,10.57869434,0.2839476168,0.006841690745,1.689862728
1.376,4.3651371,-1.157634854,10.62093735,0.276774317,0.006544984877,1.689269304
1.378,4.475615025,-1.122373104,10.65672588,0.2700722516,0.007382742595,1.68776834
1.38,4.571057796,-1.084046602,10.68325424,0.2629338503,0.01150172018,1.685900807
1.382,4.656300545,-1.038681269,10.70988655,0.2568601072,0.01665044017,1.683876157
1.384,4.752940655,-1.010008335,10.73291874,0.2512401342,0.0219038818,1.6808393
1.386,4.829114437,-0.9961985946,10.74876881,0.245166406,0.02593559213,1.67708683
1.388,4.898106098,-0.9735782146,10.7526083,0.2395289838,0.02694788389,1.673037767
1.39,4.940147877,-0.9430664778,10.74353981,0.2343977243,0.02642428502,1.668534756
1.392,4.986116886,-0.9294865727,10.73724842,0.228830114,0.02588323317,1.664503098
1.394,5.014885426,-0.9021447897,10.70341301,0.2231054306,0.02502802201,1.660331726
1.396,5.019472599,-0.8710297346,10.66928101,0.2163510174,0.02405063622,1.655165553
1.398,4.998604298,-0.8476336002,10.63260174,0.2088635564,0.0242949836,1.649580479
1.4,4.946640968,-0.8224082589,10.57927799,0.2023534775,0.0246964097,1.644484162
1.402,4.856446743,-0.7885446548,10.51827431,0.1968556792,0.02518510073,1.639562249
1.404,4.758571625,-0.7602356672,10.47102261,0.1917767823,0.02631956525,1.635024428
1.406,4.650008678,-0.7383622527,10.43348026,0.187186569,0.02773328125,1.631289482
1.408,4.541427135,-0.6978235841,10.3995018,0.1821600199,0.02989749052,1.627554417
1.41,4.434339523,-0.6686813831,10.35910702,0.1763306111,0.03298672289,1.623191118
1.412,4.332145214,-0.6304220557,10.32147026,0.172054559,0.03675663471,1.618897557
1.414,4.221092224,-0.5867900848,10.27174759,0.1693667471,0.04019493237,1.615249872
1.416,4.097207069,-0.5567668676,10.20119572,0.1673247218,0.04284783453,1.612509727
1.418,3.985043526,-0.5387623906,10.13065243,0.1680752039,0.04520402849,1.609821916
1.42,3.87402916,-0.4997273684,10.06253338,0.1721767336,0.04836307466,1.606191635
1.422,3.789063692,-0.4525041282,9.997774124,0.1779363155,0.05216789246,1.602823138
1.424,3.721365213,-0.4103374183,9.939585686,0.1843940318,0.05656611919,1.600187659
1.426,3.651645899,-0.3713885844,9.88944149,0.1930159628,0.06215117499,1.598163128
1.428,3.601281404,-0.337074846,9.851585388,0.2047271132,0.06883578748,1.597028613
1.43,3.570358038,-0.305883199,9.848750114,0.2183406949,0.07628834248,1.596260667
1.432,3.546664953,-0.2873808146,9.870230675,0.2330363542,0.08405505866,1.59561491
1.434,3.534454584,-0.2930694222,9.905195236,0.2481683642,0.0922755599,1.595370531
1.436,3.536753178,-0.3039104044,9.951289177,0.2634749115,0.1009847522,1.595579982
1.438,3.546166897,-0.3252379596,9.997611046,0.278868705,0.109885931,1.596609712
1.44,3.551127911,-0.3621948361,10.05104065,0.2930233181,0.117931895,1.598599434
1.442,3.568586349,-0.3992474973,10.11580849,0.3051010072,0.1262571216,1.600676417
1.444,3.574600697,-0.4436647296,10.18277931,0.3160093129,0.1347045153,1.602474093
1.446,3.587385654,-0.4878999889,10.24087238,0.3267605305,0.1428726465,1.604777932
1.448,3.621182203,-0.5105203986,10.28307724,0.3368310928,0.1528210342,1.607291102
1.45,3.658368826,-0.499899745,10.31089783,0.3453308344,0.1628741324,1.609909177
1.452,3.708618402,-0.4635078609,10.34705925,0.3522772491,0.1713913381,1.612858772
1.454,3.763790607,-0.4143118262,10.36959362,0.3592061996,0.1799085438,1.615633845
1.456,3.798793793,-0.3691380322,10.38238907,0.3667635024,0.1906248629,1.619299054
1.458,3.858361244,-0.3138415217,10.40654087,0.3742509484,0.2028770745,1.624255776
1.46,3.909530163,-0.2654116154,10.4300909,0.3814068139,0.2138726413,1.629107714
1.462,3.967958212,-0.2166944146,10.44136238,0.3871489465,0.2230705321,1.632982373
1.464,4.019299507,-0.1822466254,10.46879959,0.3926467299,0.2315528244,1.636455655
1.466,4.074883461,-0.1547037363,10.48451519,0.3974114656,0.240070045,1.640714169
1.468,4.107597828,-0.1411621273,10.4869957,0.4003087282,0.2488839477,1.645601153
1.47,4.204926968,-0.1067239344,10.50030804,0.4021064043,0.2575233281,1.650104046
1.472,4.260472298,-0.1018493399,10.5181694,0.4034677744,0.2642079294,1.654467463
1.474,4.300675869,-0.100738436,10.54214859,0.4046720266,0.270403862,1.659092546
1.476,4.302734852,-0.107739076,10.56446266,0.4048291147,0.2776469886,1.663490772
1.478,4.351566792,-0.1199303493,10.61766243,0.4045847654,0.2856580317,1.667190909
1.48,4.428813457,-0.125571087,10.61878204,0.4041658938,0.2930058837,1.670576811
1.482,4.515627384,-0.136785537,10.68106079,0.4036771953,0.2988527119,1.674800515
1.484,4.564833164,-0.1432403028,10.73072529,0.4025427401,0.3031113446,1.678413272
1.486,4.603800774,-0.1478467435,10.75840187,0.4020715058,0.3061133027,1.68050766
1.488,4.622140408,-0.1441596746,10.77987385,0.4037819207,0.3092374504,1.681362987
1.49,4.660907269,-0.1354447752,10.83159828,0.4057366848,0.3114539981,1.680769563
1.492,4.679314137,-0.1361534595,10.89949799,0.407482028,0.3123441339,1.679582715
1.494,4.684169292,-0.1352723986,10.91620064,0.4088084698,0.3133563995,1.678151488
1.496,4.709394455,-0.1353777498,10.93744183,0.4109377563,0.3134436905,1.675987363
1.498,4.723654747,-0.1415835172,10.95006371,0.4140095413,0.3112620115,1.67321229
1.5,4.72432518,-0.1510645449,10.9711895,0.4171685874,0.3084869385,1.67082119
1.502,4.720101357,-0.1483255774,10.98906898,0.4203276336,0.3060958385,1.668587089
1.504,4.722505569,-0.1651233137,10.98177242,0.4238357544,0.3035476506,1.665462971
1.506,4.710371494,-0.1618863344,10.96595097,0.4287401438,0.3021863103,1.661989808
1.508,4.709471226,-0.1621353477,10.96036816,0.4332605302,0.3035302162,1.658359528
1.51,4.718980789,-0.1627386808,10.94372368,0.4376238585,0.3053453565,1.654362679
1.512,4.721633911,-0.147636041,10.91748333,0.4422315359,0.3060784042,1.650522947
1.514,4.715466499,-0.144006446,10.91044426,0.4469613731,0.30606094,1.646438837
1.516,4.704788208,-0.1228417009,10.90067577,0.4526686072,0.3051010072,1.641307592
1.518,4.695968151,-0.1117996424,10.90998459,0.4584630728,0.3050311804,1.636054158
1.52,4.685184479,-0.09951259941,10.92860126,0.4642924964,0.305013746,1.631394148
1.522,4.667084694,-0.1046840772,10.94798565,0.4698251784,0.3030938804,1.626960993
1.524,4.66601181,-0.1334623843,10.96159363,0.4749040902,0.3001093566,1.622335911
1.526,4.648476601,-0.1646157354,10.9752121,0.4795117676,0.2957460284,1.617274404
1.528,4.632732391,-0.1763090044,10.97836304,0.4839099944,0.2908067703,1.612073302
1.53,4.580404758,-0.2060833126,10.98041248,0.4875926375,0.2868972123,1.606802464
1.532,4.544740677,-0.2140703648,10.98562241,0.4897219241,0.2837381661,1.601496696
1.534,4.5247159,-0.2189353853,10.98822689,0.4902804494,0.2818183005,1.596173406
1.536,4.484445095,-0.2097224891,10.98476982,0.4889190793,0.2807187438,1.590850115
1.538,4.452717304,-0.2019269764,10.99460506,0.4861614704,0.2790083289,1.585526943
1.54,4.431753635,-0.1930396855,11.0184803,0.4818854034,0.2776818871,1.5795753
1.542,4.407390118,-0.1863072067,11.03881168,0.4763527215,0.2765125036,1.573361993
1.544,4.401385307,-0.1816145629,11.05025578,0.4687256217,0.275727123,1.568003774
1.546,4.393455982,-0.1739722788,11.07996273,0.4596324563,0.2766521275,1.56329143
1.548,4.3844347,-0.164366737,11.10694122,0.4505567551,0.2783102095,1.557898283
1.55,4.377998829,-0.1584482789,11.13890839,0.4399276972,0.279915899,1.551911831
1.552,4.378592968,-0.1552400291,11.17799091,0.4270820618,0.2815216184,1.546326756
1.554,4.397468567,-0.1273236424,11.19867802,0.413328886,0.2821848392,1.540584683
1.556,4.420223236,-0.09576806426,11.19933796,0.3976209164,0.2837032676,1.534772754
1.558,4.437107086,-0.08893980086,11.20559216,0.3804992437,0.2868623137,1.52861166
1.56,4.443025589,-0.09044336528,11.20058346,0.363429904,0.2903529704,1.521996975
1.562,4.464161396,-0.06733452529,11.19637871,0.3463780284,0.2933374941,1.515835881
1.564,4.503905296,-0.01888546348,11.17841339,0.3284011483,0.2958333194,1.509866834
1.566,4.543744564,0.009672574699,11.18797112,0.310022831,0.2990446985,1.503636003
1.568,4.563425064,0.02888364904,11.19826603,0.2924473584,0.3038269281,1.497946262
1.57,4.588899612,0.06449979544,11.22909355,0.2751860619,0.3083124161,1.49311173
1.572,4.579964161,0.09119035304,11.28143024,0.2593384683,0.311384201,1.487980485
1.574,4.714164257,0.2386540174,11.2386322,0.2437177747,0.3154857159,1.482116103
1.576,4.748544693,0.3119261861,11.21475697,0.2291617244,0.3190461993,1.476251841
1.578,4.771395206,0.3367492557,11.23903465,0.2159670442,0.3211231232,1.470701694
1.58,4.824124813,0.4058842063,11.31710434,0.2027199864,0.3216641843,1.464348674
1.582,4.843240261,0.5299038887,11.29723263,0.191008836,0.3203028142,1.457018256
1.584,4.847904205,0.761633873,11.10066795,0.1805543154,0.3172135949,1.449303985
1.586,4.832130909,0.9068470001,11.04904842,0.170937553,0.3131120801,1.44111836
1.588,4.818809509,0.9765661359,11.04140759,0.1629264802,0.3092374504,1.432409167
1.59,4.785281181,1.106025338,11.04292011,0.1561895162,0.3048217595,1.423822165
1.592,4.747960567,1.195377111,11.04260445,0.1506044567,0.2998650074,1.41527009
1.594,4.714470387,1.261026025,11.05023766,0.1464331299,0.2946988344,1.405792952
1.596,4.683297634,1.293711662,11.07066441,0.1434835196,0.2887996435,1.396891713
1.598,4.665437222,1.325870633,11.08318996,0.1403768361,0.2816786766,1.388845801
1.6,4.671327114,1.332219958,11.09569836,0.1372177899,0.2737199962,1.380206347
1.602,4.662535667,1.346020103,11.10889435,0.1349837631,0.2654296756,1.371322632
1.604,4.644693851,1.359705448,11.11534977,0.1331337094,0.2566855848,1.362648368
1.606,4.623758793,1.36293292,11.11436367,0.1307949722,0.2471386194,1.353764653
1.608,4.597911358,1.343683481,11.10176945,0.1279675364,0.2378709167,1.344462037
1.61,4.572858334,1.331587911,11.09019184,0.125541538,0.2287428528,1.335299015
1.612,4.535891533,1.329595923,11.06952477,0.1226617396,0.2190388143,1.326223373
1.614,4.513664246,1.294927955,11.05223846,0.1186474785,0.2090729922,1.31651926
1.616,4.504623413,1.254149914,11.04499817,0.1148077548,0.1993515044,1.306570888
1.618,4.493418694,1.231500745,11.05221844,0.1107236892,0.1900139898,1.297477722
1.62,4.4762187,1.186097026,11.0768795,0.1058891267,0.1805368513,1.288402081
1.622,4.482405186,1.121348262,11.09797764,0.1010894701,0.1716356725,1.278401256
1.624,4.49196291,1.025542021,11.14022064,0.09628981352,0.1629613936,1.267388344
1.626,4.495047092,0.9878093004,11.15304375,0.09213592857,0.1550026834,1.255642176
1.628,4.498791218,0.9281841516,11.18546104,0.08885471523,0.1486147791,1.243913651
1.63,4.483775139,0.8624010086,11.22397995,0.08532914519,0.1415985674,1.231574178
1.632,4.44775629,0.7445296645,11.30343819,0.08103563637,0.1346347034,1.218327045
1.634,4.438955307,0.7095935345,11.33538628,0.0777195096,0.1295906901,1.204748392
1.636,4.410301208,0.652688086,11.40169621,0.07541567832,0.1259604096,1.190995216
1.638,4.380412102,0.5836681128,11.46594715,0.07321656495,0.1241627261,1.177207112
1.64,4.360109329,0.5197141767,11.51743126,0.07073819637,0.1234296858,1.163069963
1.642,4.34613657,0.4686314762,11.5699892,0.0678409487,0.122504659,1.148793221
1.644,4.330191612,0.4558943212,11.63466072,0.06476917118,0.1224348471,1.135074854
1.646,4.321964741,0.4683345854,11.68693161,0.06162757427,0.1246339604,1.121304274
1.648,4.316333771,0.4935024381,11.72044182,0.05813691765,0.1280373484,1.107167006
1.65,4.289394379,0.5404191613,11.75352859,0.05387831479,0.1306902468,1.093204379
1.652,4.255751133,0.5886192918,11.79521656,0.04930555075,0.133028999,1.078369141
1.654,4.248357773,0.6490010619,11.83466339,0.04522148147,0.1362054944,1.063498974
1.656,4.234002113,0.7386591434,11.86342239,0.04136430472,0.1393819898,1.049867868
1.658,4.212387085,0.8545863628,11.87188911,0.03632030264,0.1413018554,1.035783052
1.66,4.204725742,0.9823505282,11.86028099,0.03269001842,0.1405164599,1.020598769
1.662,4.201565266,1.126433611,11.8454752,0.03089232743,0.1382998824,1.005571485
1.664,4.190035343,1.259101033,11.82497215,0.02825688012,0.1373923123,0.9915564656
1.666,4.1700387,1.393262625,11.80069447,0.02530727349,0.1354375482,0.9776636362
1.668,4.171140194,1.546750069,11.77322865,0.02282890677,0.1314931065,0.9622174501
1.67,4.164819241,1.693054914,11.74728489,0.02024581842,0.1273566782,0.9461429715
1.672,4.148040295,1.846216798,11.71111298,0.0182561446,0.1234645918,0.9310808182
1.674,4.081558228,1.973004103,11.68795586,0.0174358394,0.1193630695,0.9157916903
1.676,4.101104259,2.121665001,11.64401722,0.0171042271,0.1158025935,0.900729537
1.678,4.121005535,2.30419898,11.52056313,0.01665044017,0.1118232459,0.8860687613
1.68,4.094353199,2.447008371,11.44515514,0.01679006778,0.1067268848,0.8706400394
1.682,4.061772823,2.580298185,11.39896679,0.01747074537,0.1021366641,0.8548971415
1.684,4.019749641,2.69729805,11.29773045,0.01870992966,0.09679596126,0.8393288255
1.686,3.986987591,2.811214209,11.1843214,0.02110103145,0.09051277488,0.8241444826
1.688,3.943451405,2.89383316,11.08708858,0.02427753061,0.08511970937,0.8091346622
1.69,3.899819374,2.963926077,10.98272991,0.02809980139,0.08038986474,0.7929205298
1.692,3.853955984,3.012643099,10.87478065,0.03218387067,0.07531096041,0.7759035826
1.694,3.802126408,3.045769215,10.78577328,0.03572688997,0.06977826357,0.7595149279
1.696,3.763206244,3.081663132,10.71101665,0.03876376152,0.06373942643,0.7430564761
1.698,3.738545895,3.104197502,10.65352726,0.04157374427,0.05653121322,0.7262489796
1.7,3.723309278,3.112194061,10.61853313,0.04461061582,0.04792674258,0.7093192339
1.702,3.72561717,3.104628325,10.60455132,0.04742059484,0.03906046972,0.6923197508
1.704,3.715331793,3.094563246,10.61280632,0.04982915148,0.03103195317,0.6753028035
1.706,3.728260517,3.077162027,10.62758446,0.05270894244,0.0242949836,0.657954216
1.708,3.74263525,3.035263777,10.64845085,0.05607742816,0.01870992966,0.6407976151
1.71,3.7340734,3.007567406,10.66341972,0.06061528623,0.01295034308,0.6240250468
1.712,3.723510265,2.986517668,10.69961071,0.06466444582,0.006824237294,0.6074094772
1.714,3.725291729,2.981777191,10.70668888,0.06695082784,-6.981316983e-05,0.5905495882
1.716,3.717974901,2.97498703,10.71684837,0.06819001585,-0.006981316954,0.5732708573
1.718,3.71167326,2.991564751,10.72557354,0.06869615614,-0.01200786512,0.5586624146
1.72,3.711702108,3.029862404,10.72938442,0.0692197606,-0.01720894687,0.5451361537
1.722,3.715714931,3.049360514,10.72098637,0.06942919642,-0.02438225038,0.527333796
1.724,3.72205472,3.070726633,10.69995499,0.06857398897,-0.03202679008,0.5083969831
1.726,3.72047472,3.092417955,10.68880844,0.06759659946,-0.03925245628,0.4921653867
1.728,3.715590239,3.117183685,10.67819691,0.06625270098,-0.04691445082,0.4767192304
1.73,3.699367285,3.166283846,10.66233826,0.06475171447,-0.05382595211,0.4616046846
1.732,3.662812471,3.228973627,10.63848209,0.0635125339,-0.05822418258,0.4472406209
1.734,3.634206533,3.302025557,10.63979435,0.06237806752,-0.06127851084,0.4335048795
1.736,3.614449739,3.386502504,10.649333,0.06190682948,-0.06503096968,0.4200134873
1.738,3.580145597,3.485105276,10.65235806,0.06141813472,-0.06878342479,0.4063301086
1.74,3.54791975,3.602153063,10.64105892,0.06058037654,-0.07155849785,0.3947585821
1.742,3.516775846,3.731717825,10.63513947,0.05897467583,-0.07396705449,0.3840422332
1.744,3.502793789,3.875915766,10.61073875,0.05548401549,-0.07714354992,0.3689626157
1.746,3.494193792,4.024174213,10.57134819,0.0508938022,-0.08096582443,0.3523994386
1.748,3.500581503,4.176014423,10.53969765,0.04588470608,-0.08410741389,0.3380877376
1.75,3.508271694,4.306814671,10.50369835,0.0406836234,-0.08663814515,0.3246836066
1.752,3.512964249,4.456346512,10.45327663,0.03666936606,-0.08831366152,0.3135483861
1.754,3.545439243,4.617381096,10.41172218,0.0318871662,-0.0899368152,0.3004933298
1.756,3.587395191,4.774804115,10.37165356,0.02583087236,-0.09122835845,0.2847504616
1.758,3.625415087,4.936297894,10.31817532,0.02083923109,-0.09143780172,0.2726728022
1.76,3.657794476,5.093022346,10.26876926,0.0162839219,-0.0918392241,0.26111871
1.762,3.683010101,5.237996101,10.21353054,0.01096066739,-0.0926246196,0.247260794
1.764,3.689359426,5.37208128,10.16584778,0.005323254038,-0.09389871359,0.2308896035
1.766,3.707287312,5.499586582,10.10899067,0.001134464052,-0.09567894787,0.2141344398
1.768,3.725990772,5.632129669,10.03824615,-0.001186823938,-0.09766862541,0.2013062686
1.77,3.740279198,5.7570014,9.980143547,-0.003089232836,-0.1000597253,0.1891413331
1.772,3.764269352,5.846621513,9.926456451,-0.004817108624,-0.102922067,0.1750390679
1.774,3.796514511,5.928235054,9.868736267,-0.006771877408,-0.1072504818,0.1585631669
1.776,3.820111513,5.998049736,9.814082146,-0.006946410518,-0.1124690175,0.140813157
1.778,3.838728905,6.035485744,9.762098312,-0.005113814492,-0.1161865667,0.1266410947
1.78,3.831910133,6.054648876,9.720114708,-0.004049163777,-0.1199041158,0.1148775741
1.782,3.823243141,6.05295372,9.642982483,-0.002670353744,-0.1255240738,0.1022064835
1.784,3.814020634,6.05540514,9.617881775,0.001343903481,-0.1328544617,0.08693484962
1.786,3.784275055,6.065288544,9.567191124,0.008342674002,-0.1408829838,0.07063347101
1.788,3.763359308,6.082574844,9.530234337,0.01562069636,-0.1476373971,0.0576656796
1.79,3.740863562,6.07965374,9.515936852,0.02300344035,-0.1544790864,0.04672246426
1.792,3.713876247,6.064896107,9.514739037,0.03136356547,-0.162315622,0.03563962504
1.794,3.686400175,6.069224834,9.504607201,0.04234168679,-0.171827659,0.02291617356
1.796,3.645287037,6.050626278,9.489226341,0.05503023043,-0.182317093,0.009843656793
1.798,3.598360538,6.034767628,9.496897697,0.06492624432,-0.191008836,0.0007330382941
1.8,3.561997652,6.011457443,9.50421524,0.07463027537,-0.1989675313,-0.006422811653
1.802,3.532673359,5.984613895,9.504453659,0.08614945412,-0.2075720131,-0.01534144394
1.804,3.496683598,5.947187424,9.491985321,0.09936159104,-0.2177123725,-0.02654645778
1.806,3.468384266,5.907797813,9.483231544,0.1129577085,-0.2278178334,-0.0383797884
1.808,3.451883316,5.892072678,9.481555939,0.1225919276,-0.2350958437,-0.04792674258
1.81,3.419877768,5.863514423,9.488039017,0.1306204349,-0.2409078032,-0.05558873713
1.812,3.387967825,5.828894615,9.494599342,0.1401848495,-0.2483254522,-0.06375687569
1.814,3.342612028,5.799858093,9.507805824,0.1488242298,-0.2573313415,-0.07278022915
1.816,3.286980391,5.790798187,9.508476257,0.1573937982,-0.2663721442,-0.08211774379
1.818,3.246317148,5.809980392,9.515821457,0.1662426144,-0.2747846246,-0.09161233157
1.82,3.226378441,5.850787163,9.498420715,0.1733111888,-0.282306999,-0.1005135104
1.822,3.194037437,5.899638653,9.494436264,0.1796641946,-0.2891661525,-0.1085594818
1.824,3.15934062,5.954705238,9.478883743,0.1857204884,-0.2951002717,-0.1169021502
1.826,3.120631456,6.000577927,9.474603653,0.1923003793,-0.3006853163,-0.1275486648
1.828,3.094582319,6.022738934,9.48278141,0.1981297731,-0.3054675162,-0.1375668496
1.83,3.066943645,6.041585922,9.511492729,0.2020742148,-0.3083822131,-0.146363318
1.832,3.036814928,6.065757751,9.537733078,0.2043256909,-0.3104940653,-0.1565909386
1.834,3.02677846,6.088809013,9.566818237,0.2058615834,-0.3132691383,-0.1676912308
1.836,3.026730776,6.106181622,9.602405548,0.2064899057,-0.3162711263,-0.1797863692
1.838,3.047943354,6.142640591,9.629938126,0.2054776102,-0.3175103068,-0.1903805137
1.84,3.088989496,6.177912235,9.668198586,0.2041337043,-0.3179989755,-0.1997529268
1.842,3.152914524,6.213326931,9.717412949,0.2032610476,-0.3191508949,-0.2105041593
1.844,3.223926783,6.245151043,9.749601364,0.2022662014,-0.319622159,-0.2218313515
1.846,3.315634251,6.269667625,9.768783569,0.1987231821,-0.3191858232,-0.2346420586
1.848,3.394460917,6.294490337,9.778398514,0.1947438419,-0.3186971247,-0.246807009
1.85,3.459697962,6.305896282,9.786758423,0.1924923658,-0.318487674,-0.2577502131
1.852,3.537528753,6.322502613,9.784662247,0.1903107017,-0.3177720904,-0.2704213262
1.854,3.608808756,6.328516483,9.774950981,0.1878497899,-0.316847086,-0.2841047049
1.856,3.671747684,6.340880394,9.758918762,0.1852667034,-0.314892292,-0.3003886044
1.858,3.717343092,6.351912975,9.738376617,0.1832770258,-0.31220451,-0.315869689
1.86,3.755544662,6.353167534,9.69396019,0.1815142483,-0.3098483086,-0.3288025856
1.862,3.790462017,6.328909397,9.653881073,0.1801703423,-0.307631731,-0.3428873718
1.864,3.815418959,6.308175564,9.620744705,0.1808859259,-0.3064100146,-0.358106643
1.866,3.83371067,6.284674168,9.580637932,0.1827534288,-0.3052755296,-0.3731339276
1.868,3.844925165,6.254899979,9.549167633,0.1841322333,-0.3032509685,-0.3874630928
1.87,3.836794376,6.230287552,9.538221359,0.1856506765,-0.3014707267,-0.4014955461
1.872,3.824248791,6.204746246,9.532792091,0.1894205809,-0.3007551432,-0.4160515964
1.874,3.795681238,6.19810915,9.540328979,0.1938013583,-0.3004584312,-0.4307996035
1.876,3.76199007,6.18087101,9.548900604,0.1981123239,-0.3006504178,-0.446280688
1.878,3.716739416,6.166190147,9.551849365,0.2033308595,-0.3007202148,-0.459841907
1.88,3.671383858,6.159706593,9.543708801,0.2089333683,-0.3010692894,-0.4713610709
1.882,3.640058041,6.156229973,9.533107758,0.2156354338,-0.3027971685,-0.4839448929
1.884,3.619420052,6.145465851,9.509674072,0.2221455127,-0.3053977191,-0.4963192642
1.886,3.600075006,6.133772373,9.477782249,0.2285857648,-0.308975637,-0.5095663071
1.888,3.577569246,6.116093636,9.454424858,0.2349911332,-0.3132691383,-0.5209633112
1.89,3.54998827,6.098060608,9.419584274,0.240436554,-0.3175452054,-0.5300041437
1.892,3.512207747,6.103711128,9.38712883,0.2464579493,-0.3221179545,-0.5400048494
1.894,3.470950842,6.099975586,9.357747078,0.2517288327,-0.326202035,-0.5503895879
1.896,3.445830822,6.101469517,9.326363564,0.2560921609,-0.330704987,-0.5618738532
1.898,3.404717445,6.127020359,9.300582886,0.2594431937,-0.3353650272,-0.5722411275
1.9,3.366802931,6.139997005,9.278059006,0.2623927891,-0.3391698301,-0.580862999
1.902,3.327566862,6.145580769,9.258473396,0.2661103606,-0.3435506225,-0.5897467732
1.904,3.314283848,6.146672249,9.235020638,0.2692170441,-0.3475474119,-0.5981068611
1.906,3.302762985,6.134634495,9.223978043,0.2733010948,-0.3520154655,-0.6062400937
1.908,3.300167799,6.135065556,9.217360497,0.2781356573,-0.3573037982,-0.6146002412
1.91,3.301604271,6.148472786,9.206969261,0.2832494974,-0.3610388041,-0.6224192977
1.912,3.282354832,6.164350986,9.199671745,0.2894454002,-0.3638138771,-0.6296973228
1.914,3.25473547,6.175785542,9.183506966,0.2954318821,-0.3671649098,-0.6370975375
1.916,3.235639095,6.171897411,9.166775703,0.3010343909,-0.3707253933,-0.6442010403
1.918,3.227489233,6.181350231,9.151423454,0.3061482012,-0.3734481037,-0.6505714655
1.92,3.218918085,6.170681,9.13580513,0.311070025,-0.3751759827,-0.6569419503
1.922,3.231137991,6.160213947,9.129234314,0.3168645203,-0.3755773902,-0.6633298397
1.924,3.253528595,6.154812336,9.147880554,0.3217514455,-0.3747920096,-0.669403553
1.926,3.271906376,6.126886845,9.174513817,0.325311929,-0.3738320768,-0.6756518483
1.928,3.288991451,6.098482132,9.187978745,0.3292912543,-0.3731339276,-0.6823015809
1.93,3.297275305,6.087851524,9.186053276,0.3334276974,-0.3715806007,-0.6891257763
1.932,3.312521696,6.086357594,9.180279732,0.3370056152,-0.3690498769,-0.6956707835
1.934,3.309974432,6.097495556,9.160628319,0.3394141793,-0.3664493263,-0.7030884624
1.936,3.322155952,6.124770164,9.138562202,0.3413340449,-0.3615972996,-0.7127226591
1.938,3.326072931,6.139422894,9.103961945,0.3437076807,-0.3558377326,-0.7229677439
1.94,3.313067675,6.12647438,9.057915688,0.3459242582,-0.3515965641,-0.7312405705
1.942,3.29258275,6.12152338,9.002716064,0.3480884731,-0.3470412791,-0.7390247583
1.944,3.272538662,6.114896297,8.966400146,0.3505493701,-0.3410722315,-0.7481877208
1.946,3.263833284,6.103069305,8.939700127,0.3521899879,-0.3339163959,-0.7585549951
1.948,3.267022133,6.094239235,8.905653954,0.3528532088,-0.3287851214,-0.7690793276
1.95,3.285907745,6.084758282,8.874807358,0.3534466326,-0.3260624111,-0.7799876332
1.952,3.312904835,6.074424744,8.848011971,0.3536735177,-0.3230778873,-0.7910704613
1.954,3.354764938,6.068248272,8.817165375,0.3531499207,-0.319011271,-0.8018740416
1.956,3.359084129,6.084605217,8.789775848,0.3532371819,-0.3145083189,-0.8129220009
1.958,3.374924183,6.101536751,8.765048027,0.3526437879,-0.3095341325,-0.8237255812
1.96,3.39603138,6.13060236,8.741306305,0.3505144715,-0.3040189147,-0.8341103196
1.962,3.391721964,6.166649342,8.723456383,0.3486993313,-0.2992541492,-0.8449662328
1.964,3.40119338,6.178064823,8.689803123,0.3470238149,-0.293843627,-0.8563283682
1.966,3.40225625,6.193694115,8.650308609,0.3447548747,-0.2878571451,-0.8675857186
1.968,3.404325008,6.210502148,8.615391731,0.3409849703,-0.2813121676,-0.8784940243
1.97,3.405933857,6.215424538,8.582399368,0.3359933197,-0.2742435932,-0.8889136314
1.972,3.40799284,6.231407642,8.562537193,0.3298497796,-0.2675589621,-0.8991587162
1.974,3.412829161,6.211813927,8.539495468,0.3232349753,-0.2607522011,-0.9093340039
1.976,3.440027237,6.189614773,8.559462547,0.3164456487,-0.2557605505,-0.9197710752
1.978,3.445610523,6.175795555,8.583826065,0.30799824,-0.2524793148,-0.9300336242
1.98,3.44860816,6.16434145,8.609625816,0.2998301089,-0.2495471686,-0.9401913881
1.982,3.446089268,6.153807163,8.644705772,0.2927266359,-0.2480461895,-0.9506459236
1.984,3.427433729,6.123946667,8.680876732,0.285082072,-0.246807009,-0.9599660039
1.986,3.387891054,6.098098755,8.70314312,0.2775596976,-0.2459867001,-0.9678548574
1.988,3.348520994,6.0582304,8.726520538,0.2700896859,-0.2459692508,-0.9757961035
1.99,3.313144207,6.003930092,8.752071381,0.262619704,-0.2462659627,-0.9834406972
1.992,3.274693251,5.967854023,8.778656006,0.2561096251,-0.2473480552,-0.9909805059
1.994,3.226531506,5.926520348,8.801966667,0.2499835044,-0.2490410358,-0.9981538057
1.996,3.190120697,5.895358086,8.840991974,0.2440144867,-0.2516241074,-1.004855871
1.998,3.152703762,5.879048347,8.888712883,0.23938936,-0.2548878789,-1.011697531
2.0,3.110336065,5.853200912,8.942707062,0.2359161526,-0.2587450743,-1.018888354
2.002,3.065392017,5.822238922,8.99629879,0.2332458049,-0.2641032338,-1.026881933
2.004,3.028866291,5.784784317,9.032930374,0.2312037647,-0.2684839964,-1.034543872
2.006,2.981240749,5.756494045,9.056652069,0.2316401005,-0.2712241709,-1.041769624
2.008,2.919585228,5.730234146,9.061784744,0.2340312004,-0.2745403051,-1.049134851
2.01,2.878730774,5.710736275,9.072626114,0.2381501794,-0.2784323692,-1.057809114
2.012,2.850775957,5.702653408,9.071266174,0.2439446747,-0.281573981,-1.066064596
2.014,2.836726904,5.692128181,9.079080582,0.249128297,-0.2844363153,-1.073220372
2.016,2.825253725,5.685290337,9.08523941,0.2543991804,-0.2881363928,-1.081179142
2.018,2.827149868,5.687215328,9.095428467,0.2597049773,-0.2915223539,-1.089155316
2.02,2.843315601,5.675799847,9.10662365,0.2659707367,-0.2938610911,-1.097148895
2.022,2.85318923,5.682579994,9.11516571,0.2738770545,-0.2948035598,-1.10512507
2.024,2.846916437,5.691984653,9.129723549,0.282464087,-0.295501709,-1.113101125
2.026,2.864930391,5.717727184,9.140295982,0.2926044464,-0.2942101657,-1.122037292
2.028,2.892167091,5.749866486,9.147335052,0.3033382297,-0.2905274928,-1.131671429
2.03,2.905871391,5.778482437,9.154718399,0.3118205369,-0.28808406,-1.140014172
2.032,2.929775238,5.786651134,9.138552666,0.3193778098,-0.2858325839,-1.147187471
2.034,2.947243214,5.801083565,9.116219521,0.3268652558,-0.2823942602,-1.15484941
2.036,2.952481747,5.820486546,9.086379051,0.3340211213,-0.2781356573,-1.162703395
2.038,2.961617947,5.824268818,9.047065735,0.3429397345,-0.27295205,-1.17031312
2.04,2.992876768,5.837341309,9.01874733,0.3525564969,-0.2673495412,-1.178149581
2.042,3.032926798,5.867651939,8.990668297,0.3608991802,-0.2622357309,-1.186387539
2.044,3.061455965,5.901371956,8.971475601,0.3693465889,-0.2573138773,-1.194485903
2.046,3.102339506,5.951085567,8.950329781,0.3778288662,-0.2518335581,-1.201886058
2.048,3.154628992,5.987410069,8.9435215,0.3853861392,-0.2461437881,-1.209303737
2.05,3.206362724,6.02623415,8.93648243,0.3919311464,-0.2406634539,-1.216127992
2.052,3.247839928,6.051440239,8.934671402,0.3964864314,-0.2362303138,-1.222358823
2.054,3.293607473,6.067376614,8.939767838,0.3992964327,-0.2331585288,-1.229322672
2.056,3.335697412,6.081310749,8.954400063,0.4010766745,-0.2306452543,-1.235954881
2.058,3.380220175,6.077020168,8.97033596,0.4021064043,-0.2280447185,-1.241487622
2.06,3.406910658,6.060921192,8.985610962,0.402839452,-0.224780947,-1.246583939
2.062,3.457495451,6.072672367,9.026437759,0.4018795192,-0.2221804112,-1.252430797
2.064,3.501156092,6.064905643,9.069551468,0.3989648223,-0.2201732844,-1.257666826
2.066,3.546818256,6.045493126,9.10452652,0.3955614269,-0.2174680233,-1.261366844
2.068,3.599433422,6.034585476,9.144394875,0.3903952539,-0.2154259831,-1.264456153
2.07,3.634829044,6.018151283,9.189396858,0.3832393885,-0.2145882249,-1.267615199
2.072,3.661969662,5.975955963,9.224917412,0.3762231767,-0.2145707756,-1.271420002
2.074,3.680960655,5.930696487,9.26979351,0.3683168292,-0.2148674875,-1.275172472
2.076,3.670119524,5.87680769,9.310782433,0.3600439727,-0.2156179696,-1.278279185
2.078,3.659527779,5.81852293,9.340920448,0.3519456387,-0.217817083,-1.280495763
2.08,3.641925573,5.756398201,9.369803429,0.3436029553,-0.2209237814,-1.282345772
2.082,3.629245758,5.696074009,9.41002655,0.3364122212,-0.2247285992,-1.284981251
2.084,3.596962452,5.647663116,9.437052727,0.3306526244,-0.2294235229,-1.287651539
2.086,3.550888538,5.596111298,9.482063293,0.3260973096,-0.2335425019,-1.289361954
2.088,3.514439106,5.553437233,9.519518852,0.3220306933,-0.2380629033,-1.290688396
2.09,3.478028059,5.506616116,9.553851128,0.3175452054,-0.2446253449,-1.292486072
2.092,3.434980154,5.472177505,9.593336105,0.3131818771,-0.2520430088,-1.294161677
2.094,3.395725012,5.446674824,9.61342907,0.3095166981,-0.2594780922,-1.295488119
2.096,3.341501236,5.422866821,9.625638962,0.3064449131,-0.2669306695,-1.297285795
2.098,3.272959948,5.390631199,9.639802933,0.3048741221,-0.2734232843,-1.297704697
2.1,3.21596837,5.364611149,9.645626068,0.3039316237,-0.2789210677,-1.29660511
2.102,3.152503014,5.351155758,9.637130737,0.3025877178,-0.2849424481,-1.295523047
2.104,3.100797653,5.345534325,9.616895676,0.301418364,-0.2905449569,-1.295086622
2.106,3.074250698,5.359937668,9.595174789,0.2999871969,-0.2944021225,-1.2949121
2.108,3.048977613,5.377750397,9.571443558,0.2978404462,-0.2985036671,-1.294842362
2.11,3.015353203,5.414870262,9.547100067,0.2953795195,-0.3036349416,-1.295435667
2.112,3.009396791,5.456539154,9.53655529,0.2934247553,-0.3073175848,-1.296325803
2.114,2.987743378,5.477847099,9.548775673,0.2920110226,-0.3091152608,-1.297617435
2.116,2.981461287,5.472216129,9.563706398,0.2898468375,-0.3092199862,-1.299100876
2.118,2.985760927,5.478805065,9.581931114,0.2873859107,-0.3076840937,-1.300340056
2.12,2.997032881,5.47822094,9.604762077,0.2863910794,-0.3061133027,-1.302102923
2.122,3.006494761,5.487117767,9.628789902,0.2859896421,-0.3038967252,-1.304075122
2.124,3.025217533,5.470425129,9.655163765,0.2848726511,-0.3001617193,-1.30583787
2.126,3.031854153,5.43782568,9.673091888,0.2818881273,-0.2951700687,-1.308752537
2.128,3.032725811,5.433114052,9.697417259,0.2772106528,-0.2893406749,-1.312470198
2.13,3.057453156,5.43961668,9.729661942,0.2724633515,-0.2819230258,-1.315873504
2.132,3.069232464,5.447584629,9.765039444,0.2686410844,-0.2735280097,-1.319154739
2.134,3.089295864,5.459593773,9.798653603,0.2654994726,-0.2647489905,-1.322697759
2.136,3.133770466,5.463184834,9.829768181,0.2616946697,-0.2545562685,-1.326659679
2.138,3.180486441,5.462955475,9.863221169,0.2560397983,-0.2440842986,-1.33016777
2.14,3.223265886,5.459584236,9.889498711,0.249651894,-0.232879281,-1.33255887
2.142,3.282105684,5.45435524,9.921275139,0.2429323792,-0.2204350829,-1.333832979
2.144,3.34100318,5.464698315,9.963833809,0.234519884,-0.207781449,-1.334670782
2.146,3.405608177,5.467571259,10.00912285,0.224780947,-0.1941155195,-1.335333943
2.148,3.451739788,5.471028805,10.03924179,0.2138726413,-0.1787740737,-1.335595727
2.15,3.489922285,5.452248573,10.06419945,0.201864779,-0.1621061862,-1.335386276
2.152,3.539712429,5.435623169,10.09846497,0.1890715212,-0.1461713314,-1.335613251
2.154,3.576822519,5.426352978,10.13027,0.175353229,-0.1317898184,-1.336032033
2.156,3.608483315,5.400380135,10.16481304,0.161565125,-0.1177399084,-1.335246682
2.158,3.633172274,5.37874651,10.21039867,0.1480562836,-0.1044405028,-1.33461833
2.16,3.659154415,5.369332314,10.24869633,0.1352979243,-0.09208357334,-1.334356546
2.162,3.673931122,5.345888615,10.28178406,0.1234820411,-0.08168140799,-1.333623528
2.164,3.732244492,5.309956074,10.32624912,0.1110902056,-0.0736528933,-1.332698464
2.166,3.751570225,5.283169746,10.36759281,0.09941395372,-0.06660176069,-1.331372023
2.168,3.761099339,5.247151375,10.3804636,0.09056513757,-0.06183701381,-1.329556942
2.17,3.783489943,5.207724094,10.40856266,0.08349654824,-0.06148795038,-1.32756722
2.172,3.786046982,5.181847095,10.42316723,0.0764977783,-0.06417575479,-1.325490236
2.174,3.793679714,5.153576851,10.42768669,0.07051130384,-0.06749188155,-1.323064327
2.176,3.807920456,5.129414558,10.43677521,0.06616543233,-0.07040657848,-1.320498705
2.178,3.83088541,5.111476898,10.43359566,0.06408849359,-0.0728674978,-1.318194866
2.18,3.847788572,5.101459503,10.42215157,0.06387905031,-0.07670722157,-1.31630981
2.182,3.859204054,5.085083485,10.41684532,0.06379178166,-0.08267624676,-1.315227747
2.184,3.869738579,5.063640594,10.41632938,0.06501351297,-0.08731882274,-1.313517332
2.186,3.870284319,5.048183918,10.40684795,0.06899286807,-0.0907920301,-1.311248422
2.188,3.861148119,5.044008255,10.38358593,0.07375761122,-0.09567894787,-1.310009241
2.19,3.828634977,5.041068554,10.35554504,0.07791149616,-0.1017701477,-1.30856061
2.192,3.792003632,5.058507919,10.31344509,0.08276351541,-0.1083500385,-1.307338834
2.194,3.746207476,5.056438923,10.27439022,0.0891514197,-0.1135511175,-1.306850195
2.196,3.695795059,5.047906399,10.23316288,0.0961676389,-0.1172512174,-1.306326628
2.198,3.641044378,5.02699995,10.18036652,0.1028173491,-0.1215970889,-1.30674541
2.2,3.589827538,4.982161045,10.12483025,0.1102524474,-0.1284213215,-1.307234168
2.202,3.532146692,4.940779686,10.06764603,0.1170766875,-0.1359262466,-1.307426095
2.204,3.481839657,4.902338982,10.0077343,0.1226791963,-0.1415112913,-1.308455825
2.206,3.428401232,4.861454964,9.96145916,0.128752932,-0.1453684717,-1.309503078
2.208,3.388437033,4.820303917,9.933858871,0.1353328228,-0.1478817463,-1.311196089
2.21,3.339940071,4.765869141,9.930909157,0.1421221644,-0.1501681209,-1.313779116
2.212,3.30576992,4.713627815,9.964130402,0.1483529806,-0.1526639462,-1.317042947
2.214,3.282191992,4.661951065,9.996118546,0.1540427655,-0.1549503356,-1.320882678
2.216,3.275105238,4.611289978,10.02542305,0.1598372459,-0.157149449,-1.324355841
2.218,3.315241337,4.577512741,10.03534508,0.1643925607,-0.1589820385,-1.327340364
2.22,3.235897779,4.492939949,10.13778687,0.1665742248,-0.1600466967,-1.329504609
2.222,3.238358974,4.433410168,10.26360703,0.1680926532,-0.1607971787,-1.33165133
2.224,3.265777349,4.373066902,10.29780674,0.1680752039,-0.1607797295,-1.334094763
2.226,3.305406332,4.303740025,10.37626934,0.1664869636,-0.1595230997,-1.336049557
2.228,3.341721535,4.257848263,10.4715395,0.1648987085,-0.1580570191,-1.337777376
2.23,3.370997906,4.223371506,10.52829075,0.161722213,-0.1584060788,-1.338807106
2.232,3.411239386,4.182823658,10.59040642,0.1572716236,-0.158877328,-1.338911891
2.234,3.459794044,4.141097546,10.63616371,0.1526290476,-0.1581093818,-1.338318467
2.236,3.504508018,4.110738754,10.68302345,0.1469392627,-0.1571668983,-1.337131619
2.238,3.559794903,4.08570528,10.73404884,0.1405339092,-0.1567829251,-1.336014628
2.24,3.617236614,4.057223797,10.7704792,0.1344427168,-0.1556833684,-1.33461833
2.242,3.695440769,4.01325655,10.78902912,0.1281769872,-0.1536587924,-1.332139969
2.244,3.782953501,3.982591867,10.81250191,0.1218414381,-0.1521927118,-1.32892859
2.246,3.873195887,3.928741455,10.84393406,0.1157851443,-0.150028497,-1.325420499
2.248,3.960737467,3.838661909,10.8712368,0.1089085415,-0.1475675851,-1.321144462
2.25,4.032956123,3.782043695,10.89370441,0.1019970402,-0.1443561763,-1.316571712
2.252,4.089497566,3.73317337,10.90370178,0.09539970011,-0.1405164599,-1.31185925
2.254,4.152225494,3.698668242,10.91327,0.0892386809,-0.1367465407,-1.307426095
2.256,4.210289955,3.671929598,10.92500114,0.08389797807,-0.133325696,-1.302766085
2.258,4.25828886,3.661759138,10.92280769,0.07888887823,-0.1303586364,-1.297093749
2.26,4.284203529,3.657966852,10.91654491,0.07431612164,-0.1275661141,-1.291630864
2.262,4.301987648,3.659958839,10.90530205,0.07087782025,-0.1242150813,-1.286237836
2.264,4.311057091,3.663664818,10.87941551,0.06916739792,-0.1200088412,-1.280897141
2.266,4.303740025,3.665446281,10.84462261,0.06846926361,-0.1148252115,-1.274928093
2.268,4.302571774,3.661443233,10.80493641,0.06785839796,-0.1092576087,-1.267772317
2.27,4.292994976,3.663272142,10.76349831,0.06792821735,-0.1044579521,-1.261070251
2.272,4.280257702,3.676832914,10.70983887,0.06827727705,-0.1002866179,-1.254542708
2.274,4.265758991,3.687262297,10.64915085,0.06841690838,-0.09733701497,-1.247159958
2.276,4.243166924,3.695201397,10.56288242,0.06942919642,-0.0958185792,-1.239742279
2.278,4.212473869,3.708905697,10.490242,0.07108726352,-0.09330530465,-1.232603908
2.28,4.20448637,3.710428476,10.45624542,0.07461282611,-0.08880235255,-1.224976778
2.282,4.161333084,3.703676701,10.34374619,0.07920303941,-0.08445648104,-1.217454433
2.284,4.13203764,3.689301968,10.27980137,0.08391542733,-0.07951720059,-1.210909486
2.286,4.101152897,3.679217577,10.2084837,0.08962265402,-0.07372270525,-1.204469204
2.288,4.078417301,3.679715633,10.17300129,0.09604547173,-0.06820746511,-1.197418094
2.29,4.045549393,3.656013012,10.10445976,0.1024508253,-0.06218608096,-1.191396594
2.292,4.016924381,3.617054701,10.02678204,0.1082104146,-0.05593780056,-1.186736584
2.294,3.995587349,3.59990263,10.00213146,0.1137081981,-0.05024803057,-1.181989312
2.296,3.959004164,3.553205967,9.958902359,0.1181587875,-0.04476769641,-1.176596284
2.298,3.923004866,3.503464222,9.918679237,0.1209164113,-0.0400203988,-1.171238065
2.3,3.890060663,3.443685532,9.878341675,0.1236216724,-0.03649483621,-1.166543126
2.302,3.835922956,3.376293659,9.846125603,0.1266061813,-0.03506366536,-1.16177845
2.304,3.824277639,3.35212183,9.841001511,0.1281420738,-0.03480186686,-1.156367898
2.306,3.796993256,3.306488276,9.838712692,0.1287703961,-0.03469714522,-1.150381446
2.308,3.763809681,3.255386591,9.845369339,0.1280722618,-0.03591887653,-1.144150615
2.31,3.747260809,3.187496662,9.875986099,0.1262222081,-0.03766420484,-1.137832522
2.312,3.71887517,3.090043068,9.925527573,0.124825947,-0.03965387866,-1.131165385
2.314,3.711319208,3.060460091,9.944345474,0.1230108067,-0.04361577705,-1.124026895
2.316,3.721413136,2.998115301,9.997371674,0.1203579083,-0.04932300374,-1.116696596
2.318,3.745833874,2.955613375,10.05980396,0.1177224591,-0.05607742816,-1.108353853
2.32,3.784600735,2.918800116,10.14226913,0.1153662652,-0.0638615936,-1.098963976
2.322,3.887676001,2.897510767,10.27348137,0.1128355339,-0.07178539038,-1.089766145
2.324,3.965535402,2.873492241,10.38408375,0.1105491519,-0.07972663641,-1.080027223
2.326,4.007338047,2.864068508,10.43366337,0.1092925146,-0.08864527196,-1.069118857
2.328,4.080093384,2.839504242,10.53551197,0.1087863743,-0.09890780598,-1.058053493
2.33,4.157119751,2.823913097,10.63615513,0.1082627699,-0.1090830788,-1.047546625
2.332,4.31448555,2.783221245,10.79605865,0.1074250117,-0.1192234382,-1.037284136
2.334,4.372157097,2.776498318,10.84109879,0.1073901057,-0.129660517,-1.02583468
2.336,4.48208952,2.753782034,10.929636,0.107075952,-0.1395914257,-1.013599992
2.338,4.654346943,2.715168476,11.04992104,0.104719758,-0.1493129134,-1.002621889
2.34,4.781546593,2.692279816,11.10574436,0.1012465507,-0.1586329788,-0.9918531775
2.342,4.902300358,2.679083109,11.14508629,0.0982445851,-0.1677959561,-0.9805085063
2.344,5.01079607,2.666163921,11.19249058,0.09482374042,-0.1768891215,-0.9689544439
2.346,5.126914501,2.642920971,11.22744656,0.08932594955,-0.1847081929,-0.9560390115
2.348,5.179242611,2.629848719,11.24576664,0.08299040794,-0.1910262853,-0.9419541955
2.35,5.263451099,2.603406906,11.28771305,0.07756242901,-0.1970825791,-0.9280090332
2.352,5.346166134,2.567216396,11.32719803,0.07314674556,-0.2014459074,-0.9147619605
2.354,5.407697201,2.505378962,11.33464813,0.06819001585,-0.2038370073,-0.9008342624
2.356,5.427348614,2.467512131,11.32349205,0.06270968169,-0.2064026296,-0.8863305449
2.358,5.425500393,2.430335045,11.28930283,0.057002455,-0.2090206295,-0.8719141483
2.36,5.4371171,2.392123461,11.22792435,0.05120795965,-0.2107135952,-0.8581435084
2.362,5.451779366,2.361554384,11.14408016,0.04569271952,-0.2104692608,-0.8449662328
2.364,5.455275059,2.341098309,10.98096752,0.03996803984,-0.2084621191,-0.8323475122
2.366,5.445314884,2.334806442,10.93064117,0.0332310684,-0.2063851804,-0.8205839992
2.368,5.406136036,2.334250927,10.8289547,0.02605776489,-0.2033308595,-0.8082095981
2.37,5.352160931,2.327499151,10.7264061,0.01841322333,-0.199246794,-0.7962366343
2.372,5.276744366,2.309523582,10.63055229,0.009930923581,-0.1941155195,-0.7853632569
2.374,5.187785149,2.27690506,10.55350685,0.001431170036,-0.1872912794,-0.7746294737
2.376,5.094114304,2.219424963,10.47764969,-0.007696901914,-0.1807288378,-0.7642621994
2.378,5.00377655,2.154015303,10.42330074,-0.01741838641,-0.1739569604,-0.7540345788
2.38,4.895433426,2.0733881,10.37469864,-0.02864085324,-0.166137889,-0.7435626388
2.382,4.780493259,1.979363203,10.33685017,-0.04077089205,-0.1585457027,-0.7326717377
2.384,4.678528786,1.87763834,10.29661942,-0.05297074094,-0.1513549536,-0.7225663066
2.386,4.568356991,1.747336268,10.26218033,-0.06583382189,-0.1433613449,-0.7127575278
2.388,4.460953236,1.614477277,10.20666409,-0.07833037525,-0.134756878,-0.7021459341
2.39,4.360530853,1.471074104,10.16218948,-0.09004153311,-0.1262047589,-0.6921452284
2.392,4.284548283,1.315594673,10.12089348,-0.1011243761,-0.1173559353,-0.682074666
2.394,4.234566689,1.163696885,10.09959507,-0.111002937,-0.1090132669,-0.6716550589
2.396,4.193338871,1.01856041,10.08516312,-0.1191187203,-0.1027824357,-0.6617415547
2.398,4.205204487,0.9203598499,10.06152725,-0.1265363693,-0.09866346419,-0.6517059207
2.4,4.118831635,0.7767460942,10.08032608,-0.1333431602,-0.09445721656,-0.6413037777
2.402,4.039066315,0.5706914663,10.18009758,-0.1386315078,-0.08895943314,-0.6310761571
2.404,4.028790474,0.5105108619,10.18042374,-0.1417381912,-0.08419468254,-0.6212325096
2.406,4.030916214,0.3267127573,10.19503689,-0.1426806599,-0.08162904531,-0.6115459204
2.408,4.039496899,0.2837703526,10.21733189,-0.1421221644,-0.07963937521,-0.6009691954
2.41,4.056400299,0.1980866641,10.23420715,-0.1399928629,-0.07756242901,-0.5903576016
2.412,4.071560383,0.1199207753,10.24319935,-0.136921078,-0.0764105171,-0.5800427198
2.414,4.116312504,0.04581544548,10.26953506,-0.1331511736,-0.07688175142,-0.5692042112
2.416,4.164311409,-0.007450755686,10.2618742,-0.1293987036,-0.07895869762,-0.5588020682
2.418,4.208355427,-0.04145799577,10.24472141,-0.1250353903,-0.08203047514,-0.5479460955
2.42,4.270154476,-0.07701668143,10.21541691,-0.1194677874,-0.08642870188,-0.536252439
2.422,4.303797722,-0.09325893968,10.2091732,-0.1134114936,-0.09264207631,-0.5255011916
2.424,4.340342999,-0.1175744534,10.2160387,-0.1071632132,-0.09990264475,-0.5148197412
2.426,4.372051716,-0.1301009208,10.2172842,-0.1017876044,-0.1082278639,-0.5028991699
2.428,4.404574871,-0.1388158053,10.21146202,-0.09580112249,-0.1176002845,-0.4914149046
2.43,4.431025982,-0.1412483156,10.20177937,-0.08894197643,-0.1277406514,-0.4794768393
2.432,4.452813148,-0.1497908384,10.19002914,-0.08332201838,-0.136921078,-0.4660901725
2.434,4.476381302,-0.1466209143,10.17811489,-0.07881906629,-0.1450717598,-0.4527558684
2.436,4.479991913,-0.1570404768,10.15594578,-0.07508406043,-0.1537460536,-0.4394389987
2.438,4.497622967,-0.1776114702,10.11848068,-0.0710523501,-0.1623330712,-0.4258079827
2.44,4.514286518,-0.211925149,10.07433128,-0.06625270098,-0.170256868,-0.4123689532
2.442,4.507228374,-0.2562944889,10.03923225,-0.06208136305,-0.1769414842,-0.3996454775
2.444,4.494769096,-0.289257884,9.989816666,-0.05817182362,-0.1831374019,-0.3872012794
2.446,4.478583813,-0.3116101325,9.948368073,-0.05407030135,-0.1891413331,-0.3745650947
2.448,4.463586807,-0.3200089931,9.906843185,-0.05080653355,-0.1940980703,-0.3621558249
2.45,4.434502125,-0.3346136212,9.873084068,-0.04916592315,-0.198339209,-0.3498512506
2.452,4.406959057,-0.3539300561,9.831645966,-0.04818854108,-0.2013237327,-0.3375815749
2.454,4.394451618,-0.3937216699,9.802972794,-0.04778711498,-0.2028421611,-0.3256435394
2.456,4.381647587,-0.4149055779,9.807483673,-0.04857251421,-0.2031563222,-0.3141418099
2.458,4.366507053,-0.4380527437,9.819377899,-0.05078908056,-0.2017077059,-0.3025353849
2.46,4.337843418,-0.4752394855,9.81980896,-0.0535816066,-0.1992118806,-0.290859133
2.462,4.316027164,-0.5187564492,9.819981575,-0.05693263933,-0.1963146329,-0.2801078856
2.464,4.293885708,-0.5566518903,9.824347496,-0.06080726907,-0.1929112375,-0.2700547874
2.466,4.280458927,-0.6036644578,9.816791534,-0.06429792941,-0.1877450645,-0.260595113
2.468,4.266467094,-0.6463195086,9.799926758,-0.06791076064,-0.180589214,-0.2520080805
2.47,4.243090153,-0.6812269688,9.778388977,-0.0709650889,-0.1723163575,-0.2437701374
2.472,4.227940083,-0.7310551405,9.750616074,-0.07379251719,-0.1626297832,-0.2350609452
2.474,4.223257065,-0.7820037007,9.737668037,-0.07777187228,-0.151756376,-0.2270847857
2.476,4.202839375,-0.8532360196,9.740598679,-0.08161159605,-0.1406909972,-0.2203827202
2.478,4.166954517,-0.9236063957,9.746315956,-0.08475318551,-0.1295557916,-0.2135410309
2.48,4.14647007,-1.004329324,9.754351616,-0.08792968839,-0.1174606606,-0.20696114
2.482,4.131262302,-1.071635127,9.767979622,-0.09142034501,-0.1046324894,-0.2011317462
2.484,4.110336781,-1.145309448,9.780495644,-0.09473647177,-0.09278170019,-0.1952848881
2.486,4.09896946,-1.213572979,9.805510521,-0.09861110151,-0.08229227364,-0.1897521913
2.488,4.086940765,-1.288109303,9.824090004,-0.1036725566,-0.072954759,-0.1849699914
2.49,4.074442863,-1.348289967,9.84724617,-0.1088736355,-0.06379178166,-0.1798736304
2.492,4.060527802,-1.402312636,9.855711937,-0.1138478294,-0.05501277745,-0.1740093231
2.494,4.05188942,-1.468191504,9.856574059,-0.1186998412,-0.04701916873,-0.1687907875
2.496,4.036988258,-1.539222598,9.850129128,-0.1241452694,-0.03841469809,-0.1641307622
2.498,4.019749641,-1.61414206,9.849975586,-0.1301666498,-0.02921681106,-0.1590867639
2.5,4.014425278,-1.705045223,9.845943451,-0.136397481,-0.02138028294,-0.1541823894
2.502,4.015832901,-1.762869835,9.835887909,-0.1420872509,-0.01534144394,-0.1487195045
2.504,4.016589165,-1.794406295,9.821005821,-0.1481959075,-0.009407324716,-0.1420698017
2.506,4.000413895,-1.854625225,9.776234627,-0.1554041207,-0.004468042869,-0.1352630109
2.508,3.980303049,-1.912497878,9.706170082,-0.1621410847,-0.0002617993741,-0.1277581006
2.51,3.950739145,-1.978970408,9.619279861,-0.1680228412,0.004921828397,-0.1190314516
2.512,3.901610374,-2.044408798,9.534352303,-0.1735904515,0.01019272301,-0.110409528
2.514,3.834179878,-2.117661953,9.441515923,-0.1786868125,0.0151669113,-0.1018574163
2.516,3.758896828,-2.189995289,9.342021942,-0.1826661527,0.01972221956,-0.09269443899
2.518,3.645622253,-2.278532982,9.199432373,-0.1861742735,0.02378883772,-0.08391542733
2.52,3.602220297,-2.305348158,9.149815559,-0.1891762316,0.02733185515,-0.07560766488
2.522,3.513950586,-2.344919443,9.058107376,-0.1903979629,0.03036872856,-0.06717772037
2.524,3.423564672,-2.390964746,8.968315125,-0.1909041107,0.03253293782,-0.05932373926
2.526,3.329644918,-2.424991131,8.89077282,-0.1914102584,0.03436553106,-0.05045747012
2.528,3.226914644,-2.447362661,8.804600716,-0.1913055331,0.03701843321,-0.0398982279
2.53,3.129422903,-2.465223312,8.716856956,-0.1900139898,0.03935717419,-0.02960078418
2.532,3.036259413,-2.458625078,8.632619858,-0.18853046,0.04155628756,-0.01972221956
2.534,2.966109276,-2.455723047,8.556379318,-0.1885653734,0.04403465614,-0.01001818944
2.536,2.891582727,-2.465625525,8.47604847,-0.1888795346,0.04567526653,-0.0004014257283
2.538,2.781315327,-2.488523722,8.418874741,-0.1887049973,0.04572762549,0.008552113548
2.54,2.671421528,-2.508749962,8.383230209,-0.1886351854,0.0447851494,0.01598721556
2.542,2.58800745,-2.518326759,8.343209267,-0.1886002719,0.04408701509,0.02281145379
2.544,2.533917665,-2.532203436,8.325138092,-0.1895427555,0.04412192479,0.03125884756
2.546,2.495112658,-2.527970552,8.3245821,-0.1911833584,0.04445353523,0.04007275775
2.548,2.463307858,-2.509334087,8.324371338,-0.1918465942,0.04522148147,0.04712389037
2.55,2.438666821,-2.470030785,8.34188652,-0.192125842,0.04553563893,0.05347688869
2.552,2.435085297,-2.459017515,8.354576111,-0.193173036,0.04502949491,0.05890486389
2.554,2.444288254,-2.433198452,8.385480881,-0.1951801628,0.045448374,0.06363470107
2.556,2.453357697,-2.417942524,8.416959763,-0.1972571164,0.0453087464,0.06839945167
2.558,2.477625132,-2.403998852,8.460534096,-0.1984264851,0.043668136,0.07192502171
2.56,2.499814749,-2.411593199,8.495959282,-0.1995260417,0.04331907257,0.07398450375
2.562,2.507437706,-2.450925112,8.531354904,-0.2009222955,0.04412192479,0.07545058429
2.564,2.521592379,-2.508615732,8.581277847,-0.2024407387,0.04413937777,0.07637561113
2.566,2.539002895,-2.567829132,8.633337975,-0.2043256909,0.04445353523,0.07674212754
2.568,2.569256067,-2.638515711,8.701467514,-0.2063502818,0.04522148147,0.07625343651
2.57,2.608789206,-2.698399305,8.768121719,-0.2081305087,0.04584980011,0.07511897385
2.572,2.662965059,-2.733967543,8.837802887,-0.2094744146,0.0470540747,0.07401940972
2.574,2.701837301,-2.766547918,8.906592369,-0.2119178772,0.04785692692,0.07293730974
2.576,2.74954915,-2.79854393,8.975575447,-0.2151292861,0.04754276946,0.07124433666
2.578,2.8067801,-2.822313786,9.04337883,-0.2186373919,0.04647811875,0.06960373372
2.58,2.883337259,-2.84636116,9.109947205,-0.2219709754,0.0447851494,0.0686263442
2.582,2.986421824,-2.866635323,9.19806385,-0.2248856723,0.04408701509,0.06726498902
2.584,3.022095442,-2.873472929,9.230882645,-0.229877308,0.04506440088,0.06578145921
2.586,3.081682444,-2.895126104,9.278710365,-0.2356892675,0.04577998444,0.06517059356
2.588,3.130840063,-2.908782721,9.322810173,-0.240890339,0.04386012256,0.06461209059
2.59,3.176052332,-2.933423758,9.356396675,-0.2452187538,0.04056145251,0.06342526525
2.592,3.212980509,-2.963829994,9.365858078,-0.2495122701,0.03700098023,0.06201154739
2.594,3.229184389,-2.983702183,9.365973473,-0.2550449669,0.0324107632,0.06078981608
2.596,3.244449615,-3.010775566,9.359652519,-0.2610838115,0.0276809223,0.06061528623
2.598,3.254179716,-3.018552065,9.338891029,-0.267332077,0.02293362655,0.0611737892
2.6,3.260663271,-3.001256466,9.315293312,-0.2723935246,0.01877974346,0.06202900037
2.602,3.244344473,-2.973493099,9.293716431,-0.2763554454,0.01488765888,0.06269222498
2.604,3.212980509,-2.965984821,9.265120506,-0.2811201811,0.009197885171,0.0635997951
2.606,3.185217381,-2.956120968,9.230116844,-0.2855882347,0.003717551241,0.06459463388
2.608,3.1338377,-2.94578743,9.192239761,-0.2877175212,0.0005410520826,0.06468190253
2.61,3.080130816,-2.932370424,9.157571793,-0.2882760167,-0.001361356815,0.06440264732
2.612,3.029373884,-2.938451767,9.123469353,-0.2885029316,-0.002460914198,0.06429792941
2.614,2.971434116,-2.955737829,9.089270592,-0.2882760167,-0.002897246508,0.06361725181
2.616,2.916597366,-2.966942549,9.052735329,-0.2872462869,-0.003403391922,0.0633379966
2.618,2.856292248,-2.963044882,9.030143738,-0.2855533063,-0.003926991019,0.0638615936
2.62,2.807948589,-2.975006342,9.0046978,-0.2835985422,-0.0041364301,0.06375687569
2.622,2.773471832,-2.981767654,8.980172157,-0.2821848392,-0.004223696887,0.06340780854
2.624,2.668606043,-3.021425009,8.981531143,-0.2803347707,-0.00520108128,0.06356488913
2.626,2.592432022,-3.06551671,8.999249458,-0.2776993215,-0.006544984877,0.06459463388
2.628,2.514457703,-3.116264105,8.975450516,-0.2756747603,-0.007103490178,0.06562437862
2.63,2.444326639,-3.160547256,8.962760925,-0.2735803723,-0.007627088577,0.06606071442
2.632,2.361937523,-3.201038122,8.96185112,-0.2708401978,-0.008482299745,0.06654940546
2.634,2.291222334,-3.242036343,8.964485168,-0.268152386,-0.009459684603,0.06736970693
2.636,2.220698833,-3.268640757,8.975488663,-0.2661103606,-0.009861109778,0.06928957254
2.638,2.154226065,-3.291069508,8.98080349,-0.2640159428,-0.01033234876,0.0716457665
2.64,2.094801903,-3.29274559,8.984404564,-0.2606300116,-0.01242674422,0.07323401421
2.642,2.0447824,-3.270623207,8.985563278,-0.2576804161,-0.01485275198,0.07452555746
2.644,1.982753277,-3.260232449,8.984653473,-0.2567902803,-0.01584758982,0.075991638
2.646,1.932321906,-3.252388954,8.980631828,-0.2554813027,-0.01656317525,0.07721336931
2.648,1.886966228,-3.233149052,8.984203339,-0.2536835968,-0.01748819835,0.0777195096
2.65,1.880233645,-3.201660633,8.973879814,-0.2526364028,-0.01785471849,0.07792895287
2.652,1.875081301,-3.182621717,8.965126991,-0.2509608865,-0.0176976379,0.07768460363
2.654,1.891697049,-3.158670425,8.967750549,-0.2496344447,-0.016685348,0.07791149616
2.656,1.922668457,-3.122000694,8.984826088,-0.2481509149,-0.01563815027,0.07831292599
2.658,1.969154239,-3.072268248,9.023114204,-0.2465975732,-0.0155334305,0.07784168422
2.66,2.001188755,-3.028023481,9.068134308,-0.246283412,-0.015795229,0.07733553648
2.662,2.069883108,-2.948718071,9.142431259,-0.2461612374,-0.01560324337,0.0764977783
2.664,2.092618465,-2.920753717,9.168030739,-0.2457947135,-0.01488765888,0.07490953058
2.666,2.136499405,-2.85514307,9.2212677,-0.245009318,-0.01427679323,0.07330382615
2.668,2.202425957,-2.781909227,9.269563675,-0.2443809956,-0.01371828746,0.071383968
2.67,2.273361683,-2.70819664,9.309230804,-0.2444333583,-0.01284562331,0.06902777404
2.672,2.335859776,-2.642087698,9.34989357,-0.2444508076,-0.01155408006,0.06618288159
2.674,2.414255619,-2.575097799,9.391657829,-0.2447824329,-0.009756390937,0.06375687569
2.676,2.507543325,-2.510818243,9.447290421,-0.245236218,-0.006824237294,0.06181956083
2.678,2.593083143,-2.437249422,9.505536079,-0.2454107404,-0.003735004691,0.05946336687
2.68,2.690412283,-2.362828016,9.56254673,-0.2457947135,-0.00122173049,0.05722934753
2.682,2.781401634,-2.296700239,9.617843628,-0.246283412,0.001692969352,0.05537929758
2.684,2.852241278,-2.24085784,9.657711983,-0.2474178672,0.004764748737,0.05400048569
2.686,2.911636591,-2.199399948,9.687371254,-0.2494599074,0.008552113548,0.05248204991
2.688,2.970438242,-2.141230583,9.712673187,-0.2512401342,0.01230457146,0.05091125518
2.69,3.019021273,-2.083108664,9.731280327,-0.2522698939,0.01539380383,0.04934045672
2.692,3.057184696,-2.036814451,9.743174553,-0.253334552,0.01886700839,0.04775220901
2.694,3.073637962,-1.988260031,9.756773949,-0.2534392476,0.02155481651,0.04646066576
2.696,3.078407049,-1.939159632,9.771839142,-0.2522349954,0.02295107953,0.0453087464
2.698,3.064252615,-1.89199388,9.779864311,-0.2507863641,0.02478367463,0.04452335089
2.7,3.041392803,-1.852058768,9.770669937,-0.249878794,0.02743657492,0.04420918971
2.702,3.017010212,-1.827618599,9.747073174,-0.2495122701,0.02944370359,0.04408701509
2.704,2.990367413,-1.788880467,9.719788551,-0.2487268746,0.03153809905,0.04466297477
2.706,2.968149424,-1.758656144,9.69719696,-0.247784391,0.03396410868,0.04584980011
2.708,2.938374996,-1.719477296,9.659991264,-0.2467720956,0.03652974218,0.04694935679
2.71,2.907336712,-1.668222308,9.6198349,-0.2450965792,0.03946189582,0.04834562168
2.712,2.86702776,-1.620165944,9.571482658,-0.2441017479,0.04160865024,0.05050982907
2.714,2.813848019,-1.5659132,9.531077385,-0.2439970225,0.04310963303,0.05295328796
2.716,2.777628422,-1.526792049,9.496706009,-0.2420771718,0.04403465614,0.05490805954
2.718,2.72578907,-1.491702676,9.473567963,-0.2384468764,0.04473278672,0.05600761622
2.72,2.678881884,-1.455243707,9.44334507,-0.2353925556,0.04628613219,0.05740387738
2.722,2.644443512,-1.424425483,9.42654705,-0.2325651199,0.04911356419,0.05892231688
2.724,2.618998051,-1.407014847,9.407690048,-0.2292140871,0.05153957382,0.05984733999
2.726,2.597201109,-1.391950607,9.401751518,-0.2240653634,0.0534594357,0.0611737892
2.728,2.569878578,-1.371484995,9.398228645,-0.21879448,0.0561472401,0.06234316155
2.73,2.56386447,-1.345713735,9.408772469,-0.214448601,0.05881759524,0.0637743324
2.732,2.562964201,-1.325123668,9.429802895,-0.2098409384,0.06084217876,0.0659385398
2.734,2.545371532,-1.302043438,9.463809967,-0.2060710192,0.06262241304,0.06775368005
2.736,2.526313782,-1.283809185,9.500077248,-0.2032784969,0.06429792941,0.07007496804
2.738,2.4930439,-1.282248259,9.520572662,-0.2008699477,0.064978607,0.07229153812
2.74,2.463825226,-1.264722705,9.526960373,-0.1992642432,0.06461209059,0.07412413508
2.742,2.426820278,-1.239497304,9.524220467,-0.1982868612,0.06510078162,0.07709119469
2.744,2.387459755,-1.206754327,9.51717186,-0.1975887269,0.06531021744,0.08082620054
2.746,2.356708527,-1.168322563,9.503630638,-0.1976061761,0.06538003683,0.08391542733
2.748,2.323860168,-1.119873524,9.483107567,-0.1979377866,0.06635741889,0.08550368249
2.75,2.285706043,-1.064270496,9.459098816,-0.1974316388,0.06644468755,0.08644615859
2.752,2.249716282,-1.005076289,9.435136795,-0.1975538135,0.06773623079,0.08747590333
2.754,2.214061975,-0.9578434825,9.400507927,-0.1979203373,0.0692197606,0.08883725852
2.756,2.182803154,-0.9107064009,9.369335175,-0.1977458,0.06949900836,0.09065239877
2.758,2.147579908,-0.8442050815,9.33234024,-0.1979901493,0.07024950534,0.09138543904
2.76,2.121186018,-0.7903929949,9.285862923,-0.1980948746,0.07213445753,0.09138543904
2.762,2.105259657,-0.7488296628,9.234168053,-0.1994038671,0.07574728876,0.09168214351
2.764,2.095232964,-0.6954677105,9.194366455,-0.2021440268,0.07972663641,0.09182177484
2.766,2.085043192,-0.6499012709,9.156816483,-0.205460161,0.08293804526,0.09154251963
2.768,2.075935841,-0.6005041003,9.119102478,-0.208078146,0.08581783623,0.09112364054
2.77,2.071070671,-0.5438189507,9.07714653,-0.2094569653,0.08920377493,0.09063494951
2.772,2.066818714,-0.4902175963,9.028936386,-0.210329622,0.09246754646,0.08950048685
2.774,2.062872887,-0.4403128326,8.976330757,-0.2106961459,0.09632471949,0.08808676898
2.776,2.049906015,-0.3949283361,8.933858871,-0.2105216086,0.1013687253,0.08623671532
2.778,2.032753944,-0.3471783996,8.888473511,-0.2098234892,0.1056273282,0.08422958851
2.78,2.037302971,-0.2966224253,8.849554062,-0.2079559863,0.1102000922,0.08215264976
2.782,2.019068718,-0.2535746992,8.809072495,-0.2049889266,0.1158549562,0.08035495877
2.784,2.012805462,-0.2242792398,8.779413223,-0.2018822283,0.1216319948,0.07805112749
2.786,2.007796764,-0.1878490597,8.760182381,-0.1974665523,0.1284038723,0.07426375896
2.788,1.993354917,-0.1542919278,8.738568306,-0.1925098151,0.1362054944,0.07084291428
2.79,1.980493188,-0.1451939642,8.708487511,-0.1879719645,0.1431693584,0.06848672032
2.792,1.973492503,-0.1292390078,8.681767464,-0.1817062348,0.1491558403,0.06689847261
2.794,1.939274669,-0.09174580872,8.65289402,-0.1747249067,0.1550725102,0.06499606371
2.796,1.908418179,-0.05071876943,8.620112419,-0.1677959561,0.1606401056,0.06263986975
2.798,1.892865419,-0.0151600847,8.587330818,-0.1602386832,0.1651081443,0.06105161831
2.8,1.881660581,0.03138319403,8.564461708,-0.1511629671,0.1681973785,0.05977752805
2.802,1.844234347,0.0741340667,8.562767029,-0.1430471838,0.1703964919,0.05831145123
2.804,1.821776867,0.1107174605,8.578357697,-0.1365894675,0.1706582904,0.05738642439
2.806,1.813052416,0.15780662,8.587848663,-0.12891002,0.1679181308,0.0567057468
2.808,1.78637135,0.1878011823,8.598957062,-0.1207244247,0.1642878354,0.05611233413
2.81,1.764909625,0.2129881829,8.625063896,-0.1129751652,0.1609193534,0.05586798862
2.812,1.729638338,0.2378495783,8.652941704,-0.106360361,0.1566956639,0.05544910952
2.814,1.71824193,0.2491693646,8.67988205,-0.0995535776,0.1521403491,0.05464625731
2.816,1.71927619,0.2807536721,8.707213402,-0.0907920301,0.146817103,0.05401793867
2.818,1.746934056,0.3285419345,8.741622925,-0.08279842138,0.1408655196,0.05407030135
2.82,1.795919418,0.3909252584,8.792878151,-0.07702138275,0.1349663138,0.05471607298
2.822,1.85336113,0.4614680111,8.847677231,-0.07120943069,0.1287703961,0.0546637103
2.824,1.899578691,0.522903204,8.901268959,-0.0656767413,0.122469753,0.05401793867
2.826,1.953994155,0.583629787,8.953155518,-0.06058037654,0.1161167547,0.05312782153
2.828,1.99840188,0.6356701255,9.007944107,-0.0553618446,0.1097462997,0.0518188253
2.83,2.040472746,0.6814568639,9.054257393,-0.05101597309,0.1036725566,0.05064945295
2.832,2.085273027,0.707611084,9.091732025,-0.04673991725,0.09742427617,0.04954989627
2.834,2.099121094,0.7302985787,9.128027916,-0.04152138159,0.09012880176,0.04782202095
2.836,2.11177206,0.7425664663,9.141760826,-0.03623303398,0.08337438107,0.04555309191
2.838,2.117815018,0.7467802167,9.154296875,-0.03124139272,0.0784176439,0.04337143153
2.84,2.127525806,0.7560793161,9.162695885,-0.02668608353,0.0745081082,0.04057890549
2.842,2.13721776,0.7718618512,9.166727066,-0.02230530791,0.07007496804,0.03787364438
2.844,2.136078119,0.8003912568,9.158243179,-0.01830850355,0.06511823088,0.03549999744
2.846,2.125677824,0.8250227571,9.167848587,-0.01480039209,0.06026621908,0.03232349828
2.848,2.126194715,0.8413895369,9.177721977,-0.01146681327,0.05639158934,0.02914699912
2.85,2.109799385,0.8604378104,9.188649178,-0.008534659632,0.05354670063,0.02658136375
2.852,2.094974279,0.8972031474,9.192327499,-0.006719517522,0.05017821491,0.02364921197
2.854,2.089611292,0.9314498305,9.187490463,-0.00502654817,0.04691445082,0.02024581842
2.856,2.086632967,0.9605824351,9.177674294,-0.003071779385,0.04338888451,0.01665044017
2.858,2.094878674,0.9866984487,9.171237946,-0.001954768784,0.03940953314,0.0132994093
2.86,2.10328722,1.034314275,9.157984734,-0.0008726646192,0.03527310491,0.01034980267
2.862,2.110067368,1.093068004,9.149767876,0.0001745329209,0.03012438305,0.007574729156
2.864,2.121071339,1.136910677,9.159803391,0.0006108652451,0.02549926005,0.006126105785
2.866,2.133137941,1.175601006,9.175270081,-0.0001396263397,0.02045525797,0.005218534265
2.868,2.134995937,1.215861797,9.201098442,-0.001710422686,0.01525417715,0.004223696887
2.87,2.146373034,1.241479754,9.228585243,-0.002670353744,0.01092576142,0.003822271014
2.872,2.167106867,1.268333077,9.252632141,-0.004014257342,0.006318091881,0.003019419499
2.874,2.185139894,1.306506395,9.263798714,-0.005811946467,0.002234021435,0.002059488557
2.876,2.2079041,1.321407795,9.282990456,-0.007819075137,-0.0009948377265,0.001989675453
2.878,2.239756584,1.345608354,9.304978371,-0.01115265395,-0.003577925032,0.003228859045
