Time (s),Gyroscope x (rad/s),Gyroscope y (rad/s),Gyroscope z (rad/s)
0.213483125,-0.095975652,-1.521857262,0.048502699
0.223483125,-0.026755897,-1.624046326,0.063407809
0.233481562,0.044558257,-1.696460009,0.014433873
0.243481562,0.085014984,-1.762450933,-0.092013761
0.253481562,0.100984752,-1.851899028,-0.216577902
0.263481562,0.106290549,-1.884920716,-0.332624853
0.273481562,0.115278997,-1.846279144,-0.422753662
0.283483125,0.136327669,-1.708502769,-0.527455926
0.293481562,0.173154116,-1.540549755,-0.601091385
0.303481562,0.224711135,-1.369507551,-0.639156997
0.313481562,0.280893296,-1.267196298,-0.646173239
0.323481562,0.316201299,-1.196475506,-0.647307694
0.333481562,0.310057729,-1.096415877,-0.71260047
0.343484687,0.288223684,-0.977105141,-0.863833249
0.353483125,0.253875583,-0.942111254,-1.054143906
0.363483125,0.210957944,-0.981276453,-1.210473061
0.373481562,0.140882984,-1.043864012,-1.339243531
0.383481562,0.053564154,-1.036900163,-1.423420668
0.393481562,-0.097843155,-0.987891257,-1.284859061
0.403481562,-0.162123635,-1.127133608,-1.207157016
0.413481562,-0.165038332,-1.21001935,-1.224400878
0.423483125,-0.14028956,-1.114183307,-1.315768838
0.433483125,-0.107739173,-0.870901823,-1.438797116
0.44348625,-0.051714107,-0.563479543,-1.542539477
0.453481562,0.012426744,-0.280526757,-1.613975763
0.463481562,0.051853731,-0.031817351,-1.651517749
0.473481562,0.064699352,0.162664682,-1.680193543
0.483481562,0.075136423,0.306881249,-1.728224993
0.493483125,0.089640111,0.411862791,-1.79542017
0.503483125,0.105924033,0.476335257,-1.874693036
0.513483125,0.115453526,0.529672503,-1.929042578
0.523481562,0.12948598,0.520003378,-1.953494668
0.533481562,0.145263746,0.454815358,-1.974717855
0.543481562,0.16737707,0.387777239,-2.000845432
0.553481562,0.223454505,0.382122397,-2.030830145
0.563484687,0.296007842,0.417639822,-2.069070339
0.573483125,0.35953781,0.471134186,-2.109020948
0.583483125,0.383396477,0.518676937,-2.130209208
0.593481562,0.374058962,0.530754626,-2.119946718
0.603481562,0.329483241,0.530126333,-2.092562437
0.613481562,0.276442707,0.523476601,-2.046695232
0.623481562,0.226665914,0.515151381,-1.978592515
0.633481562,0.187657803,0.52099824,-1.895637035
0.643481562,0.167150185,0.542971909,-1.814112663
0.653483125,0.136711642,0.614006817,-1.732064724
0.663481562,0.070406578,0.705357373,-1.622510433
0.673481562,-0.008447394,0.789970934,-1.489551187
0.683481562,-0.074490651,0.919439435,-1.350745201
0.693481562,-0.127670839,1.106905222,-1.224767327
0.703481562,-0.188094139,1.284178376,-1.137151837
0.713483125,-0.253421813,1.431449175,-1.06257391
0.723483125,-0.303128779,1.550637722,-0.962252378
0.733481562,-0.308312416,1.599018335,-0.828211069
0.743481562,-0.281992853,1.508714914,-0.646539748
0.753481562,-0.218253419,1.352734923,-0.4098382
0.763481562,-0.113219507,1.280757546,-0.133290797
0.773481562,0.018849555,1.307216644,0.16053538
0.783483125,0.153082833,1.356208086,0.43519786
0.793483125,0.305118471,1.400539398,0.752149642
0.803483125,0.459754616,1.403052688,1.037249207
0.813481562,0.603046179,1.356626987,1.264456153
0.823481562,0.722863019,1.259063005,1.469113469
0.833481562,0.804492056,1.071056247,1.666108727
0.843481562,0.857131183,0.813480496,1.906876922
0.8534925,0.893713295,0.685198784,2.175151587
0.863483125,0.960611761,0.681359112,2.37488699
0.873481562,1.024263978,0.650222421,2.530256271
0.883481562,1.043340325,0.57014668,2.639409065
0.893481562,1.035468936,0.414306253,2.725645781
0.903481562,1.013355613,0.235095844,2.83408308
0.913481562,0.970647395,0.058398716,2.998719931
0.923483125,0.942722142,-0.13847442,3.13993454
0.933483125,0.96143204,-0.14348352,3.261566639
0.943483125,1.016584516,0.16474162,3.397335768
0.953481562,1.037668109,0.328418612,3.589531422
0.963481562,1.002534628,0.514976859,3.82008934
0.973481562,0.952827573,0.645038784,4.028028011
0.983481562,0.882281363,0.660676956,4.165629864
0.993481562,0.784804761,0.4341681,4.283439159
1.003487812,0.679962814,0.101141833,4.395140648
1.013483125,0.652892768,-0.081489421,4.452614307
1.023481562,0.689230502,-0.158772603,4.531625271
1.033481562,0.742305994,-0.065851271,4.683276653
1.043481562,0.778486669,0.089168869,4.855767727
1.05348625,0.796533346,0.261624843,5.04342556
1.063481562,0.784054279,0.383762985,5.168321133
1.073483125,0.763651371,0.414777488,5.183348656
1.083483125,0.752603412,0.361370414,5.057004452
1.093481562,0.737820506,0.273196399,4.844702244
1.103481562,0.707504094,0.161373138,4.600373745
1.113481562,0.639052331,-0.020943951,4.364666939
1.123481562,0.545554996,-0.233455241,4.187987328
1.13348,0.441044688,-0.394409508,4.114037514
1.143481562,0.322816104,-0.405597061,4.062759876
1.153483125,0.189193696,-0.336063147,3.965806961
1.163481562,0.0596379,-0.302203745,3.816790819
1.173481562,-0.040090214,-0.338663697,3.635625601
1.183481562,-0.100443698,-0.382104933,3.432242393
1.193481562,-0.133098811,-0.38456586,3.220027685
1.203484687,-0.144321278,-0.377689242,2.961910963
1.213483125,-0.139573976,-0.426122129,2.62289834
1.223483125,-0.128648221,-0.481675953,2.187578201
1.233481562,-0.121963605,-0.58061868,1.6832304
1.243481562,-0.123482041,-0.729704678,1.174274921
1.253483125,-0.166277513,-0.847095549,0.720489383
1.263481562,-0.264504641,-0.923471153,0.331106424
1.273481562,-0.395927936,-0.99099797,-0.021066124
1.283483125,-0.532674491,-1.063097477,-0.357932121
1.293483125,-0.645073712,-1.160137773,-0.644550085
1.30348625,-0.713019371,-1.390050054,-0.882909715
1.313481562,-0.727505565,-1.643751025,-1.056866646
1.323481562,-0.744470179,-1.688606024,-1.22572732
1.333481562,-0.801839173,-1.527616858,-1.394256234
1.343481562,-0.899158716,-1.363206863,-1.551929355
1.353483125,-1.037633181,-1.275696039,-1.717508674
1.363483125,-1.214208126,-1.252273679,-1.899319649
1.373481562,-1.40355885,-1.263077378,-2.097117901
1.383481562,-1.578755021,-1.34826684,-2.266763926
1.393481562,-1.71452415,-1.564617872,-2.364223003
1.403481562,-1.789520979,-1.856803417,-2.386301517
1.413481562,-1.808649778,-2.060134172,-2.361936569
1.423483125,-1.837831736,-2.095878601,-2.3342731
1.433483125,-1.913945556,-2.049924135,-2.320327997
1.443483125,-2.027252197,-2.018420935,-2.316959381
1.453481562,-2.134921551,-1.997476935,-2.311880589
1.463481562,-2.194018602,-1.910158157,-2.282908201
1.473481562,-2.190964222,-1.74375844,-2.231385946
1.483481562,-2.155830622,-1.55681622,-2.16188693
1.493481562,-2.127975225,-1.430105329,-2.071234465
1.503483125,-2.135584831,-1.419842839,-1.964560032
1.513483125,-2.154120207,-1.519152045,-1.843748331
1.523481562,-2.151083469,-1.700229883,-1.716042638
1.533481562,-2.080502272,-1.902845263,-1.58765626
1.543481562,-1.921206117,-2.074795008,-1.436964512
1.553481562,-1.689182043,-2.208015919,-1.254088879
1.563481562,-1.398881435,-2.322963476,-1.034718394
1.573483125,-1.074005842,-2.386894941,-0.786270797
1.583483125,-0.793129981,-2.37727809,-0.544455469
1.593481562,-0.609503865,-2.330991983,-0.316899419
1.603481562,-0.531190932,-2.244475842,-0.091996305
1.613481562,-0.532761753,-2.117642879,0.137025803
1.623481562,-0.581945121,-1.969080448,0.363813877
1.633481562,-0.646225631,-1.807288408,0.563339949
1.643483125,-0.705811143,-1.63544333,0.730053782
1.653481562,-0.739129484,-1.450804949,0.864147425
1.663481562,-0.735045433,-1.251977086,0.971275747
1.673481562,-0.705392241,-1.064406514,1.063516378
1.683481562,-0.667309165,-0.874095798,1.146157742
1.693481562,-0.595733225,-0.673173487,1.228432536
1.703481562,-0.480332077,-0.442964554,1.328527212
1.713483125,-0.340286851,-0.177081108,1.429843545
1.723483125,-0.23699826,0.096638881,1.506742716
1.733481562,-0.209439516,0.380900651,1.549834967
1.743481562,-0.248447612,0.719250202,1.522712469
1.753481562,-0.355418861,1.152981997,1.422635317
1.763481562,-0.521260023,1.675306678,1.274020553
1.773481562,-0.692354679,2.253185034,1.101424932
1.783483125,-0.820409477,2.769488335,0.971886575
1.793483125,-0.879907727,3.129026175,0.914535046
1.803481562,-0.876312375,3.371243,0.921080053
1.813481562,-0.837635875,3.518601179,0.987734199
1.823481562,-0.762848496,3.595029116,1.142038703
1.833481562,-0.687013924,3.586093187,1.34224546
1.843481562,-0.623187244,3.550139427,1.585683942
1.853483125,-0.585488141,3.510258436,1.82931447
1.863483125,-0.558819532,3.39342618,2.087082148
1.873483125,-0.492531925,3.155799627,2.337868452
1.883481562,-0.349694163,2.886285782,2.52505517
1.893481562,-0.134861588,2.592355013,2.631747007
1.903481562,0.123028256,2.302211523,2.649566889
1.913481562,0.379015684,2.055369616,2.585042
1.923483125,0.561856389,1.846436143,2.491370201
1.933481562,0.640937269,1.601671219,2.438486814
1.943483125,0.661060929,1.354096293,2.442309141
1.953481562,0.678269863,1.124445796,2.488176346
1.963481562,0.758886635,0.923558414,2.511720657
1.973481562,0.920521557,0.847113013,2.444159031
1.983481562,1.099470139,0.918200254,2.257112026
1.993481562,1.223563075,1.036132216,1.99168241
2.003483125,1.229514599,1.128407717,1.713319898
2.013483125,1.108458638,1.176596284,1.480475545
2.023481562,0.909892499,1.183874249,1.336695313
2.033481562,0.719599247,1.187312603,1.287250161
2.043481562,0.610219479,1.215604424,1.291386604
2.053481562,0.589624584,1.248852849,1.300497174
2.063481562,0.61896354,1.271297812,1.268767118
2.073483125,0.642333508,1.288489342,1.18136096
2.083483125,0.617567301,1.278348923,1.037144423
2.093481562,0.53497833,1.198866606,0.860290229
2.103481562,0.424254626,1.062748432,0.683558226
2.113481562,0.335365027,0.875614226,0.527455926
2.123481562,0.315991849,0.687258303,0.417709649
2.13348,0.361265689,0.543757319,0.370201796
2.143481562,0.440503657,0.427797645,0.395648688
2.153481562,0.548103213,0.300790042,0.49209559
2.163481562,0.696124554,0.174794719,0.613867223
2.173481562,0.894673228,0.101124376,0.673889101
2.183481562,1.142195821,0.077230819,0.621389568
2.193481562,1.334077358,-0.049968775,0.54318136
2.203481562,1.399946094,-0.191654608,0.479249954
2.213483125,1.343432307,-0.242967278,0.409384429
2.223483125,1.173541903,-0.225426719,0.298521101
2.233481562,0.904900849,-0.186348811,0.152157798
2.243481562,0.604459882,-0.123866014,-0.001396263
2.253481562,0.36510542,-0.025569074,-0.154705986
2.263481562,0.225775793,0.115575701,-0.318592399
2.273481562,0.163694426,0.252060443,-0.493090421
2.283483125,0.134983763,0.355628282,-0.659961343
2.293483125,0.103986718,0.457485706,-0.804701507
2.303481562,0.075904369,0.557335973,-0.920608819
2.313481562,0.073373638,0.626765192,-1.0054667
2.323481562,0.093776539,0.660013735,-1.053550601
2.333481562,0.117809728,0.671463072,-1.079538465
2.343481562,0.142069802,0.645963788,-1.1233114
2.353483125,0.163048655,0.536392033,-1.184712052
2.363483125,0.161477864,0.372313648,-1.246758461
2.373483125,0.131021872,0.208427221,-1.302958131
2.383481562,0.084840454,0.056984998,-1.353572607
2.393481562,0.035587262,-0.095015727,-1.397764325
2.403481562,-0.009058258,-0.248971224,-1.438290954
2.413506562,-0.054750979,-0.377270371,-1.47843349
2.423483125,-0.097302109,-0.46933648,-1.52337575
2.433483125,-0.148160994,-0.547370136,-1.581739545
2.443483125,-0.214151904,-0.60985297,-1.656509399
2.453481562,-0.31026718,-0.672283351,-1.740529537
2.463481562,-0.422212601,-0.765518844,-1.823991179
2.47348625,-0.524087489,-0.876521826,-1.904922128
2.483481562,-0.586779714,-0.987734199,-1.98508513
2.493481562,-0.602697074,-1.073342562,-2.059069633
2.503483125,-0.588333011,-1.094740272,-2.11966753
2.513483125,-0.577442169,-1.057477593,-2.162881851
2.523489375,-0.592068017,-0.98918283,-2.186932564
2.533481562,-0.627498209,-0.928916574,-2.192866564
2.543481562,-0.661532164,-0.90123564,-2.190527916
2.553481562,-0.678426921,-0.896523297,-2.198346853
2.563481562,-0.667379022,-0.903452218,-2.21342659
2.573483125,-0.632856369,-0.962828338,-2.231839657
2.583483125,-0.585889578,-1.097201228,-2.240863085
2.593481562,-0.534245253,-1.247613668,-2.233270884
2.603481562,-0.484311402,-1.376785517,-2.212204933
2.613481562,-0.448026031,-1.476513624,-2.177560091
2.623481562,-0.419385165,-1.563780069,-2.134816885
2.633481562,-0.394566596,-1.636106491,-2.08453393
2.643483125,-0.375874102,-1.690613151,-2.027863026
2.653483125,-0.356710404,-1.71213305,-1.992171168
2.663481562,-0.353080094,-1.689513564,-1.998401999
2.673487812,-0.382087469,-1.641534567,-2.044513702
2.683481562,-0.446088701,-1.579732418,-2.099700928
2.693481562,-0.529131472,-1.514282584,-2.145620584
2.703481562,-0.623850465,-1.419877648,-2.167891026
2.713483125,-0.701238394,-1.310916781,-2.168484211
2.723483125,-0.742899418,-1.194520831,-2.14947772
2.733481562,-0.730926454,-1.059903502,-2.1162467
2.743481562,-0.663033128,-0.942041457,-2.072648287
2.753481562,-0.552937746,-0.865770578,-2.019607782
2.763481562,-0.431794465,-0.814021587,-1.968975782
2.773483125,-0.328959644,-0.779376745,-1.919530511
2.783483125,-0.277838975,-0.780389071,-1.86708343
2.793483125,-0.295065373,-0.818786323,-1.81339705
2.803481562,-0.362539798,-0.88428849,-1.749657631
2.813481562,-0.42348668,-0.96745348,-1.68471396
2.823489375,-0.431707203,-1.038209081,-1.615773439
2.833481562,-0.366676211,-1.065348983,-1.525121093
2.843481562,-0.245794713,-1.058995962,-1.415409684
2.853483125,-0.103550382,-1.030424953,-1.290112495
2.863483125,-0.006649705,-0.974487126,-1.198395371
2.873487812,-0.012915436,-0.878494024,-1.163436532
2.883481562,-0.131196395,-0.802956164,-1.166962028
2.893481562,-0.31311208,-0.75968945,-1.194119334
2.903481562,-0.486545444,-0.750386834,-1.232918024
2.913481562,-0.581002653,-0.759113491,-1.267650127
2.923483125,-0.565172493,-0.777893245,-1.291089892
2.933483125,-0.465025514,-0.790773749,-1.296116352
2.943483125,-0.335015953,-0.765990078,-1.27635932
2.953481562,-0.219457701,-0.698428392,-1.227315545
2.963481562,-0.165928453,-0.584440947,-1.170016408
2.973481562,-0.191986218,-0.451115251,-1.11547482
2.983481562,-0.256249249,-0.295484245,-1.076204896
2.993481562,-0.310598791,-0.129887402,-1.064703226
3.003483125,-0.320564628,0.03031637,-1.070916533
3.013483125,-0.271957189,0.178913698,-1.085961342
3.023481562,-0.166609123,0.300720215,-1.102664113
3.033481562,-0.045221481,0.40959388,-1.105962753
3.043481562,0.060510565,0.52883476,-1.081755042
3.053481562,0.14437364,0.630151153,-1.017788768
3.063481562,0.20160298,0.685635149,-0.940383375
3.073483125,0.240157306,0.731048584,-0.863449275
3.083483125,0.258745074,0.764855623,-0.78916806
3.093481562,0.266494334,0.775798857,-0.709738135
3.103481562,0.275901645,0.801996231,-0.630273283
3.113481562,0.302675009,0.85048151,-0.542448342
3.123481562,0.358159006,0.910538256,-0.452127546
3.13348,0.424760789,0.991678596,-0.35829863
3.143483125,0.477085739,1.046883345,-0.243089452
3.153483125,0.504749238,1.061753631,-0.112905346
3.163481562,0.518467486,1.054719925,0.011309734
3.173481562,0.532657027,1.048174977,0.111509085
3.183481562,0.553496242,1.052189231,0.192684352
3.193481562,0.591404796,1.044247985,0.261397958
3.203481562,0.658512712,1.034631133,0.323845834
3.213483125,0.729931593,1.032205224,0.393379748
3.223483125,0.785939217,1.013146162,0.477766424
3.233481562,0.823271811,0.976651311,0.566254616
3.243481562,0.838142037,0.943175912,0.649663925
3.253481562,0.822887838,0.925635338,0.719895959
3.263481562,0.768852413,0.929126024,0.775240362
3.273481562,0.678968012,0.962950528,0.813410699
3.283483125,0.572310925,1.017090559,0.853465974
3.293483125,0.479057968,1.087462306,0.890798569
3.303481562,0.427256614,1.142771721,0.889454663
3.313481562,0.396085024,1.201065779,0.845123351
3.323481562,0.339344352,1.253530383,0.767840147
3.333481562,0.23938936,1.288576603,0.675110817
3.343481562,0.100426242,1.33165133,0.610481262
3.353487812,-0.063477628,1.367360711,0.600794673
3.363483125,-0.214902386,1.355283022,0.627184093
3.373481562,-0.356553316,1.27532959,0.680102468
3.383481562,-0.444744796,1.172512174,0.752551079
3.393481562,-0.460819274,1.089259982,0.848439455
3.403481562,-0.406783879,1.053149104,0.957156003
3.413481562,-0.307369947,1.017683983,1.050408959
3.423483125,-0.199107155,0.991189957,1.135022521
3.433483125,-0.106046207,0.977733433,1.244402289
3.443483125,-0.018517943,0.936072409,1.391376495
3.453481562,0.081332341,0.865753114,1.568283081
3.463481562,0.204587489,0.840096772,1.745433927
3.473481562,0.327825189,0.868161678,1.888271689
3.48348,0.433295429,0.950680852,2.012696266
3.493481562,0.509688497,1.086397648,2.1329844
3.503483125,0.563601732,1.227280617,2.259782553
3.513483125,0.594040275,1.338021755,2.436165571
3.523481562,0.618195593,1.365632892,2.684997082
3.533481562,0.662631691,1.333274484,2.98004508
3.543481562,0.731345296,1.358599186,3.241250992
3.553481562,0.775589406,1.306937456,3.48739481
3.563481562,0.778207421,1.143435001,3.639604807
3.573483125,0.816499949,1.003634095,3.641297817
3.583483125,0.930993497,1.0923841,3.543541908
3.593481562,1.05152595,1.361636043,3.38988328
3.603481562,1.089818478,1.573414326,3.207897663
3.613481562,1.033130169,1.587184906,3.060173035
3.623481562,0.925966978,1.494106531,2.973325491
3.633481562,0.797615469,1.370746732,2.946936131
3.643483125,0.705915868,1.257527232,2.993518829
3.653481562,0.671375811,1.20717442,3.085829258
3.663481562,0.673662186,1.229270339,3.167475939
3.673481562,0.685268641,1.304581285,3.199258327
3.683481562,0.693314612,1.400801301,3.161978006
3.693481562,0.689055979,1.500302434,3.078114986
3.703481562,0.665965259,1.535174131,2.941420794
3.713483125,0.634514451,1.462533593,2.792107821
3.723483125,0.609992564,1.285382628,2.691489697
3.733481562,0.615856886,1.048942924,2.661557198
3.743481562,0.676541984,0.784071684,2.680197477
3.753481562,0.796481013,0.578384638,2.723027706
3.763481562,0.960419774,0.520823717,2.753152132
3.773481562,1.151638031,0.653625786,2.744477987
3.783483125,1.317374468,0.973317742,2.688278198
3.793483125,1.363486171,1.334984899,2.56137538
3.803481562,1.24984777,1.539188385,2.35608983
3.813481562,0.989968181,1.526953697,2.099316835
3.823481562,0.651723385,1.340988874,1.814950466
3.833481562,0.317457944,1.067530632,1.512764096
3.843481562,0.070563659,0.801821709,1.209949493
3.853483125,-0.039898228,0.596152127,0.920469165
3.863481562,-0.035622168,0.49778536,0.653695643
3.873483125,0.039008107,0.532901406,0.434761524
3.883481562,0.122033417,0.621284842,0.31084314
3.893481562,0.196209908,0.642734945,0.262078643
3.903481562,0.242321506,0.526077151,0.265953273
3.913481562,0.268710881,0.29035297,0.25542894
3.923481562,0.297788084,-0.001413717,0.1881814
3.933483125,0.337616503,-0.28478536,0.040421825
3.943483125,0.343707681,-0.475497514,-0.205146
3.953481562,0.279008329,-0.545467734,-0.516268373
3.963481562,0.12777555,-0.499617964,-0.834494293
3.973481562,-0.103672557,-0.392908514,-1.105194807
3.983481562,-0.394741118,-0.298800379,-1.293637991
3.993481562,-0.667728066,-0.29298842,-1.379176617
4.003483125,-0.831370115,-0.382698357,-1.377797842
4.013483125,-0.847165346,-0.538346827,-1.3330127
4.023481562,-0.732305229,-0.762185276,-1.305122256
4.033481562,-0.531295657,-0.996740103,-1.311929107
4.043481562,-0.317161232,-1.176858068,-1.348057389
4.053481562,-0.16997762,-1.279343843,-1.400295138
4.063481562,-0.136746541,-1.337847233,-1.461521268
4.073483125,-0.227189511,-1.360414386,-1.53520906
4.083483125,-0.428879768,-1.353764653,-1.634762645
4.093481562,-0.704187989,-1.330516815,-1.762957096
4.103481562,-0.99499476,-1.292224288,-1.900995135
4.113481562,-1.228258014,-1.226198554,-2.023988485
4.123481562,-1.35135603,-1.149055004,-2.107903957
4.13348,-1.344688892,-1.086676836,-2.152793884
4.143481562,-1.24518764,-1.041263461,-2.184611082
4.153483125,-1.106538773,-1.012674928,-2.204717398
4.163481562,-1.016497254,-1.07725215,-2.20897603
4.173481562,-1.007369161,-1.27726686,-2.200580835
4.183481562,-1.063376784,-1.553622246,-2.184471607
4.193481562,-1.16610682,-1.80280292,-2.224195242
4.203481562,-1.303377032,-1.937524915,-2.329560757
4.213483125,-1.446651101,-1.95379138,-2.44543314
4.223484687,-1.56819582,-1.858793139,-2.54257822
4.233481562,-1.633401275,-1.675882578,-2.582214594
4.243481562,-1.61746645,-1.463912368,-2.540989876
4.253481562,-1.530165076,-1.284754276,-2.412917614
4.263481562,-1.389892936,-1.202444553,-2.212239742
4.273481562,-1.217210054,-1.22333622,-1.989797473
4.283483125,-1.061596513,-1.267475605,-1.823869109
4.293483125,-0.950122356,-1.287442088,-1.726619363
4.303481562,-0.892561376,-1.264875054,-1.657713771
4.313481562,-0.881618142,-1.188377261,-1.611846447
4.323481562,-0.912685037,-1.064406514,-1.586277366
4.333481562,-0.967889786,-0.899123788,-1.567148566
4.343481562,-1.025153995,-0.725166857,-1.524178624
4.353483125,-1.051857591,-0.594371855,-1.429965734
4.363483125,-1.009829998,-0.492584258,-1.291753054
4.373489375,-0.913103878,-0.420083284,-1.110919476
4.383481562,-0.787143469,-0.421322495,-0.914046407
4.393481562,-0.676245272,-0.461342871,-0.751416624
4.403481562,-0.588629723,-0.478639096,-0.614931881
4.413481562,-0.537770867,-0.456071973,-0.507157743
4.423481562,-0.53316319,-0.407080591,-0.433016181
4.433483125,-0.570670307,-0.351648927,-0.378893524
4.443483125,-0.620516896,-0.282149941,-0.334893763
4.453481562,-0.676245272,-0.183905348,-0.296095103
4.463481562,-0.748362303,-0.116081849,-0.262340426
4.473481562,-0.810391247,-0.08874999,-0.235619456
4.483481562,-0.839887321,-0.068713613,-0.218846828
4.493481562,-0.838578343,-0.062936574,-0.202004403
4.503483125,-0.817337692,-0.080128066,-0.176522598
4.513483125,-0.78962183,-0.108507119,-0.128997281
4.523481562,-0.748519361,-0.140568823,-0.028902652
4.533481562,-0.675931096,-0.167656332,0.109379783
4.543481562,-0.58004272,-0.151738927,0.233629778
4.553481562,-0.50335294,-0.118350774,0.312134683
4.563481562,-0.47650978,-0.0879995,0.341316581
4.573483125,-0.494172513,-0.032882001,0.336429656
4.583483125,-0.553147197,0.045814894,0.317353219
4.593481562,-0.626852453,0.112242125,0.30503118
4.603481562,-0.681201994,0.181234986,0.313775301
4.613481562,-0.692982972,0.228585765,0.393240124
4.623481562,-0.622401834,0.210940495,0.541156769
4.633481562,-0.466701031,0.170536116,0.701186001
4.643483125,-0.278013498,0.156294227,0.822503865
4.653483125,-0.128281698,0.134774327,0.880134642
4.66352375,-0.039723694,0.126152396,0.883660197
4.673481562,-0.043266714,0.170344129,0.829956412
4.683481562,-0.14086552,0.268553823,0.736651123
4.693481562,-0.301296175,0.403048873,0.632280409
4.703481562,-0.483787805,0.553234458,0.579204977
4.713483125,-0.625683069,0.639296651,0.649943173
4.723483125,-0.651531398,0.637202263,0.823585987
4.733481562,-0.534821212,0.609503865,1.040163875
4.743481562,-0.313391328,0.554752886,1.228781581
4.753481562,-0.065868728,0.507943153,1.332820654
4.763481562,0.120794237,0.470767647,1.358232617
4.773481562,0.208165422,0.444605172,1.347132325
4.783483125,0.192073479,0.470313877,1.314302683
4.793483125,0.07787659,0.532901406,1.277179599
4.803483125,-0.081646502,0.555101991,1.273776174
4.813481562,-0.194831103,0.532150865,1.322435975
4.823481562,-0.203819543,0.509915411,1.389317036
4.833481562,-0.115139373,0.486091644,1.448640704
4.843481562,0.026843164,0.477975875,1.469445109
4.853483125,0.156154603,0.488116235,1.410609961
4.863483125,0.21345377,0.485131711,1.283026457
4.873483125,0.184760556,0.461273074,1.134010196
4.883481562,0.094282687,0.419908762,1.020336986
4.893481562,0.004590216,0.369503647,0.979112267
4.903481562,-0.030159289,0.334893763,1.002621889
4.913481562,0.001640609,0.331158757,1.053114176
4.923481562,0.092310466,0.368002683,1.112595081
4.933483125,0.203016698,0.451708674,1.132037997
4.943483125,0.280299872,0.561140835,1.101355076
4.953481562,0.281451792,0.682860076,1.030739069
4.963481562,0.207641825,0.780615985,0.938306451
4.973481562,0.087685339,0.841004372,0.86255914
4.983481562,-0.021554817,0.859679401,0.837827861
4.993481562,-0.076148719,0.829153538,0.87517792
5.003483125,-0.057386424,0.787771821,0.951588392
5.013483125,0.00858702,0.762167811,1.029080987
5.023481562,0.08817403,0.770772278,1.068071723
5.033481562,0.159243837,0.805574179,1.051072121
5.043481562,0.192579627,0.831981003,0.984295905
5.053481562,0.172508344,0.800599992,0.901898861
5.063484687,0.133954018,0.705444634,0.838281631
5.073483125,0.119904116,0.612401128,0.810007274
5.083483125,0.152559236,0.552431583,0.806499183
5.093481562,0.225112572,0.544560194,0.796620607
5.103481562,0.294192702,0.583184302,0.754069507
5.113484687,0.317806989,0.625997245,0.67322588
5.123481562,0.294943184,0.648040771,0.566359341
5.13348,0.245602727,0.66172415,0.455321491
5.143481562,0.18284069,0.695164621,0.367025286
5.153483125,0.113062426,0.734993041,0.31368804
5.163481562,0.061645027,0.788487375,0.288956702
5.173481562,0.043406337,0.846868634,0.275988907
5.183481562,0.057613317,0.910922229,0.25509733
5.193481562,0.100688048,0.960035801,0.210957944
5.203481562,0.150796443,0.976686239,0.149312913
5.213483125,0.177604705,0.956091344,0.082135193
5.223483125,0.157062173,0.885929108,0.031922072
5.233481562,0.098611102,0.771819472,0.012705997
5.243481562,0.022060962,0.639506102,0.020647245
5.253481562,-0.053494342,0.534489632,0.035971235
5.263481562,-0.112852991,0.467416614,0.044994589
5.273481562,-0.140813157,0.422683835,0.041434117
5.283483125,-0.140603721,0.409698576,0.021868976
5.293481562,-0.121981062,0.413887382,-0.016057029
5.303483125,-0.097040303,0.430502921,-0.06536258
5.313481562,-0.080546945,0.447886378,-0.121771619
5.323481562,-0.080808744,0.449265212,-0.172647968
5.333481562,-0.114703037,0.417884171,-0.199002445
5.343481562,-0.181095362,0.365018159,-0.194534391
5.353483125,-0.248133466,0.31653291,-0.167673782
5.363483125,-0.304612309,0.292447358,-0.139626339
5.373483125,-0.350374848,0.306270391,-0.121876344
5.383481562,-0.382645994,0.338174999,-0.108576931
5.393481562,-0.394566596,0.346587479,-0.100618228
5.403481562,-0.38241908,0.32449162,-0.100304075
5.413481562,-0.362574697,0.271904856,-0.107041046
5.423481562,-0.338681132,0.192911237,-0.117530473
5.433483125,-0.311645985,0.103969261,-0.126169845
5.443481562,-0.285221696,0.026476644,-0.126134947
5.453481562,-0.265988171,-0.033021629,-0.118612573
5.463481562,-0.251083076,-0.090617493,-0.102782436
5.473481562,-0.226857901,-0.132400677,-0.079587013
5.483481562,-0.188931897,-0.152559236,-0.049462631
5.493481562,-0.14437364,-0.161181152,-0.021537364
5.503483125,-0.106150925,-0.169209674,-0.000488692
5.513483125,-0.073775068,-0.163118467,0.019739674
5.523481562,-0.061173789,-0.148318082,0.038676497
5.533481562,-0.058887407,-0.121823981,0.032794736
5.543481562,-0.054733526,-0.122452296,0.022724187
5.553481562,-0.059428461,-0.074700095,0.006754424
5.563481562,-0.071959928,-0.052167892,-0.012618731
5.573483125,-0.085590944,-0.029321531,-0.038362335
5.583483125,-0.093724184,0.009581857,-0.070319317
5.593481562,-0.101368725,0.03939208,-0.106360361
5.603481562,-0.10939724,0.061191242,-0.146363318
5.613481562,-0.12266174,0.082187556,-0.183783174
5.623481562,-0.142471224,0.105260804,-0.211656079
5.633483125,-0.162699595,0.131458193,-0.227398947
5.643483125,-0.174602732,0.145752445,-0.229440987
5.653483125,-0.173485726,0.14028956,-0.210434347
5.663481562,-0.149295464,0.125279739,-0.169157311
5.673481562,-0.103340946,0.100792766,-0.113411494
5.683483125,-0.06775368,0.076567598,-0.052708942
5.693481562,-0.05651376,0.06717772,-0.014992379
5.703481562,-0.046163958,0.062220987,-0.004380777
5.713483125,-0.045099307,0.072919853,-0.002583087
5.723483125,-0.078923792,0.087755151,0.012217305
5.733481562,-0.130341187,0.071977377,0.044854961
5.743481562,-0.166993096,0.038816124,0.091245815
5.753481562,-0.171653137,0.009564404,0.145228848
5.763481562,-0.150482282,-0.016179202,0.197449103
5.773481562,-0.12135274,-0.053040557,0.232722208
5.783483125,-0.09985029,-0.080494583,0.241448849
5.793483125,-0.097860612,-0.102764986,0.236544475
5.803483125,-0.109083079,-0.125227377,0.234589711
5.813481562,-0.116640352,-0.156974912,0.23052308
5.823481562,-0.106290549,-0.178791523,0.219789311
5.833481562,-0.078312926,-0.178861335,0.202632725
5.843481562,-0.043458696,-0.182526529,0.183189765
5.853483125,-0.026424285,-0.197204754,0.162071273
5.863483125,-0.027925268,-0.203191236,0.142157063
5.873483125,-0.046547931,-0.181095362,0.113847829
5.883481562,-0.069254667,-0.172787592,0.080564395
5.893481562,-0.087947138,-0.161565125,0.050073497
5.903481562,-0.093951076,-0.136467293,0.02263692
5.913481562,-0.073775068,-0.111369461,0.004642576
5.923481562,-0.037734017,-0.070755646,-0.010227629
5.933483125,0.001640609,-0.021659536,-0.027855454
5.943483125,0.036686819,0.027314402,-0.039933134
5.953481562,0.048764501,0.08157669,-0.054436818
5.963481562,0.023998277,0.133866757,-0.076567598
5.973481562,-0.024556782,0.166626588,-0.101316363
5.983481562,-0.073775068,0.170832828,-0.128072262
5.993481562,-0.097145028,0.166905835,-0.153466806
6.003483125,-0.089535393,0.149051115,-0.167900667
6.013483125,-0.063268185,0.143710405,-0.164375111
6.023481562,-0.025342181,0.140900433,-0.135420099
6.033481562,0.011344641,0.143029734,-0.088819802
6.043481562,0.03790855,0.151023343,-0.040980332
6.053481562,0.037175514,0.158702791,-0.002303835
6.063481562,0.021991149,0.163293004,0.03408628
6.073483125,-0.002879793,0.175946638,0.069848076
6.083483125,-0.033789575,0.189158782,0.114895023
6.093481562,-0.05708972,0.187413454,0.169576183
6.103483125,-0.065851271,0.196611345,0.221970975
6.113481562,-0.056967545,0.146014243,0.252182633
6.123481562,-0.046233773,0.042062435,0.247958928
6.13348,-0.024556782,-0.061627574,0.223594129
6.143483125,0.008115781,-0.13402383,0.204866752
6.153483125,0.04033456,-0.169209674,0.204063892
6.163481562,0.055623643,-0.148300633,0.226735726
6.173481562,0.059061941,-0.099029981,0.268326908
6.183481562,0.050056044,-0.033283427,0.318208426
6.193481562,0.030752702,0.042463861,0.355802834
6.203481562,0.014974925,0.121789075,0.369800359
6.213483125,0.009424778,0.185074717,0.359485477
6.223483125,0.009354965,0.196227372,0.327825189
6.233481562,0.008779006,0.167429432,0.280823469
6.243481562,0.007173303,0.111421816,0.226910248
6.253481562,0.001134464,0.051277772,0.17544049
6.263481562,-0.010855948,0.032340951,0.134617239
6.273481562,-0.038920842,0.022026055,0.098837994
6.283483125,-0.078243107,0.050056044,0.071767941
6.293483125,-0.122888632,0.117408298,0.057735492
6.303483125,-0.168127567,0.179280221,0.052778758
6.313481562,-0.17659241,0.181741133,0.059079394
6.323481562,-0.137706473,0.201760054,0.074508108
6.333481562,-0.072291538,0.197449103,0.092484996
6.343481562,0.001204277,0.202807263,0.114598319
6.353483125,0.057857666,0.181130275,0.134564891
6.363483125,0.087964594,0.156189516,0.152890846
6.373483125,0.095434606,0.073530719,0.171862572
6.383481562,0.098593652,-0.031450834,0.192073479
6.393481562,0.110514246,-0.092327915,0.203802094
6.403481562,0.146939263,-0.152314886,0.19739674
6.413481562,0.181479335,-0.18193312,0.179664195
6.423481562,0.200747773,-0.190939024,0.164916158
6.433483125,0.189804554,-0.19376646,0.153746054
6.443483125,0.14414674,-0.18636626,0.142157063
6.453481562,0.070982538,-0.169960156,0.119834304
6.463481562,-0.014695672,-0.138090447,0.09351474
6.473481562,-0.104248516,-0.103428215,0.060510565
6.483481562,-0.173450828,-0.093444929,0.034365531
6.493481562,-0.197274566,-0.096865773,0.027715828
6.503483125,-0.175615028,-0.123743847,0.042620942
6.513483125,-0.117408298,-0.160500482,0.066130526
6.523481562,-0.062849306,-0.195110351,0.094701566
6.533481562,-0.030054569,-0.225863054,0.14529866
6.543481562,-0.041364305,-0.273789793,0.213750467
6.553481562,-0.083199844,-0.285919845,0.259198844
6.563481562,-0.110950582,-0.298608392,0.274557739
6.573483125,-0.116675258,-0.359345824,0.285553306
6.583483125,-0.104545221,-0.400413424,0.290579855
6.593481562,-0.072919853,-0.463681608,0.281800866
6.603481562,-0.037524577,-0.516408026,0.273667634
6.613481562,-0.02539454,-0.539551079,0.279619187
6.623481562,-0.070074968,-0.483578384,0.314543247
6.633481562,-0.180152878,-0.357129276,0.325835526
6.643483125,-0.330059201,-0.180257604,0.312344134
6.653483125,-0.457712591,0.010297443,0.295013011
6.663481562,-0.503510058,0.152663946,0.290283173
6.673481562,-0.463838696,0.238883212,0.295379519
6.683481562,-0.394706219,0.284401387,0.268501461
6.693481562,-0.322641551,0.244939506,0.192125842
6.703481562,-0.245236218,0.141581103,0.083932884
6.713483125,-0.165090695,-0.339675963,-0.045779984
6.723483125,-0.036407568,-0.718586981,-0.158842415
6.733481562,0.195267439,-1.287093043,-0.205303073
6.743481562,0.455548376,-1.922742009,-0.327353954
6.753481562,0.67743212,-2.182499409,-0.451586485
6.763481562,0.81328851,-2.324656487,-0.562955976
6.773481562,0.88404417,-2.587921858,-0.737593591
6.783483125,0.965568483,-2.683286667,-0.919526696
6.793483125,0.925862253,-2.485942364,-1.063655972
6.803483125,0.754470944,-2.285770416,-1.17748642
6.813481562,0.561891317,-2.026554108,-1.27635932
6.823481562,0.426139593,-1.743810773,-1.359489322
6.833481562,0.37240091,-1.534563303,-1.419772983
6.843481562,0.409349531,-1.357220411,-1.47431457
6.853481562,0.508449316,-1.167695045,-1.538472772
6.863483125,0.627550602,-1.001609564,-1.613190413
6.873483125,0.737419069,-0.904010713,-1.671449423
6.883481562,0.843360543,-0.853919804,-1.709392905
6.893481562,0.965114713,-0.801577389,-1.772469163
6.903481562,1.098388076,-0.73614496,-1.877799749
6.913481562,1.225622535,-0.668862522,-2.005400658
6.923481562,1.321284056,-0.605367422,-2.128830433
6.933483125,1.362980008,-0.520474613,-2.230879784
6.943483125,1.350588083,-0.386433363,-2.309978247
6.953481562,1.296954155,-0.231832087,-2.373002052
6.963481562,1.227524996,-0.094073243,-2.417734861
6.973481562,1.176945329,0.033772122,-2.452466726
6.983481562,1.167293668,0.137444675,-2.479519367
6.993481562,1.198692083,0.213802829,-2.500812531
7.003483125,1.255520105,0.22652629,-2.505769253
7.013481562,1.316048026,0.179454759,-2.475208521
7.023481562,1.399474859,0.140813157,-2.430720091
7.033481562,1.525103569,0.173939511,-2.418921709
7.043481562,1.662670493,0.284942448,-2.467057705
7.053481562,1.753584623,0.432544947,-2.575390339
7.063481562,1.764056683,0.603499949,-2.712311506
7.073483125,1.677976966,0.760108352,-2.834205151
7.083483125,1.503670931,0.809099734,-2.867924929
7.093481562,1.297617435,0.789656758,-2.802614689
7.103481562,1.135074854,0.765798092,-2.687737226
7.113481562,1.048384428,0.722130001,-2.57329607
7.123481562,1.02571249,0.668705463,-2.490672112
7.13348,1.028697014,0.661322713,-2.441453934
7.143483125,1.016566992,0.725184321,-2.418694735
7.153483125,0.962636352,0.810426176,-2.401520729
7.163481562,0.851040006,0.885108829,-2.375689745
7.173481562,0.684814811,0.94650948,-2.32322526
7.183481562,0.492619187,0.983318508,-2.231734991
7.193481562,0.302517921,0.983789742,-2.089368582
7.203481562,0.131789818,0.906628728,-1.889458537
7.213483125,0.002460914,0.747053266,-1.640120745
7.223483125,-0.069097586,0.550057948,-1.364463449
7.233481562,-0.079621918,0.346046418,-1.088352442
7.243481562,-0.039357174,0.156241879,-0.859400094
7.253481562,0.039880775,-0.049829151,-0.647499681
7.263481562,0.150290295,-0.255044967,-0.47923249
7.273481562,0.277193189,-0.438182354,-0.335225374
7.283483125,0.395526528,-0.528764963,-0.204657301
7.293483125,0.462233007,-0.543303549,-0.078941241
7.303483125,0.436995536,-0.530004144,0.050981067
7.313481562,0.322920829,-0.513737679,0.188076675
7.323481562,0.147462875,-0.482234478,0.327807724
7.333481562,-0.054349553,-0.432771832,0.457817316
7.343481562,-0.250681639,-0.392140567,0.571263731
7.353481562,-0.413625568,-0.385944664,0.659612298
7.363481562,-0.52895695,-0.426139593,0.729983985
7.373483125,-0.586989105,-0.497767895,0.796777725
7.383481562,-0.595872879,-0.583323956,0.862070501
7.393481562,-0.585505605,-0.670538068,0.937747955
7.403481562,-0.572328389,-0.741154075,1.033007979
7.413506562,-0.568314135,-0.792990327,1.134149909
7.423481562,-0.578943193,-0.849730968,1.232743502
7.433483125,-0.608404338,-0.892212331,1.335246682
7.443483125,-0.650745988,-0.94366461,1.425183535
7.453481562,-0.704554498,-1.030267835,1.503095031
7.463481562,-0.751207173,-1.109802485,1.584427357
7.473481562,-0.791471899,-1.125283599,1.685080528
7.483481562,-0.834965527,-1.070742011,1.80259347
7.493481562,-0.885667324,-0.957347989,1.918186665
7.503483125,-0.949651122,-0.833970666,2.013429165
7.513483125,-1.037929893,-0.704676688,2.103819847
7.523481562,-1.144272804,-0.591369927,2.173667908
7.533481562,-1.262989998,-0.501014233,2.219971418
7.543481562,-1.384866357,-0.372889608,2.230583191
7.553481562,-1.515207529,-0.207938522,2.216114283
7.563481562,-1.645077586,-0.065606929,2.192430258
7.573483125,-1.751874208,0.09836676,2.121465206
7.583483125,-1.864517808,0.296915412,1.982746363
7.593481562,-2.034146309,0.461883932,1.837726951
7.603481562,-2.268770933,0.530248463,1.745556116
7.613481562,-2.556680441,0.38332665,1.747022271
7.623481562,-2.790275335,0.077841684,1.812524438
7.633481562,-2.852443933,-0.208374858,1.877729893
7.643483125,-2.731876612,-0.385368705,1.868270278
7.653483125,-2.483062506,-0.435093135,1.757476687
7.663481562,-2.223881006,-0.357094377,1.559696078
7.673481562,-2.076976776,-0.277769148,1.343694091
7.683481562,-2.114588499,-0.312815368,1.207820177
7.693481562,-2.258525848,-0.498884916,1.222934723
7.703481562,-2.322282791,-0.650274754,1.350605607
7.713483125,-2.186164618,-0.580897927,1.46375525
7.723483125,-1.920141459,-0.350688994,1.472412109
7.733483125,-1.648376226,-0.041346848,1.35053575
7.743481562,-1.477246642,0.253858149,1.136331558
7.753481562,-1.450246453,0.453279465,0.910922229
7.763481562,-1.533498645,0.50516808,0.757193625
7.773481562,-1.653193355,0.455705464,0.673993766
7.783483125,-1.678797245,0.410658509,0.642892003
7.793483125,-1.555419922,0.402403116,0.6028018
7.803483125,-1.322331309,0.46034804,0.515151381
7.813481562,-1.047249913,0.590235472,0.379696369
7.823481562,-0.801804245,0.774210572,0.227067336
7.833481562,-0.634392262,0.949738383,0.09021607
7.843481562,-0.553374112,1.06723392,-0.018046705
7.853481562,-0.535414636,1.085263133,-0.081437066
7.863483125,-0.532098532,1.022012472,-0.080494583
7.873483125,-0.498919815,0.913103878,-0.028501227
7.88348,-0.419594616,0.76537925,0.015463617
7.893481562,-0.272602975,0.643433094,0.078714348
7.903481562,-0.138840944,0.544001698,0.134687051
7.913481562,-0.036599554,0.44624579,0.139591426
7.923481562,0.06939429,0.362557232,0.144583076
7.933483125,0.17453292,0.325172305,0.129974663
7.943483125,0.253543973,0.344353467,0.108472213
7.953481562,0.295047909,0.363482267,0.111805789
7.963481562,0.323950559,0.384496033,0.162612319
7.973481562,0.326481283,0.388510287,0.233909026
7.983481562,0.315066844,0.375594854,0.276355445
7.993481562,0.309185088,0.346290767,0.280648947
8.003483125,0.310249716,0.299062163,0.245218754
8.013483125,0.317806989,0.259582818,0.172874868
8.023481562,0.319761783,0.242024809,0.088121675
8.033481562,0.323357135,0.238795951,-0.00991347
8.043481562,0.320477366,0.22755602,-0.079429932
8.053481562,0.294698834,0.211586267,-0.080983274
8.063481562,0.255603462,0.216892064,-0.029234264
8.073483125,0.220522344,0.223960653,0.028501227
8.083483125,0.2099282,0.170745566,0.057334065
8.093481562,0.230802342,0.069429196,0.045832347
8.103481562,0.275971472,-0.05318018,0.000418879
8.113481562,0.355733007,-0.173223928,-0.045971971
8.123481562,0.453803062,-0.263858885,-0.063913956
8.13348,0.543931842,-0.315223902,-0.04988151
8.143483125,0.610865235,-0.308993101,-0.017383479
8.153483125,0.646243036,-0.267070293,0.016283922
8.163481562,0.652822971,-0.221831352,0.042917646
8.173481562,0.643206179,-0.183451563,0.044453535
8.183481562,0.634688973,-0.155578643,0.021223204
8.193481562,0.627009511,-0.12397074,-0.018901916
8.203481562,0.612662911,-0.093549646,-0.075398222
8.213483125,0.587181091,-0.051434852,-0.137043253
8.223483125,0.550983012,-0.003874631,-0.184376583
8.233483125,0.513475835,0.043703046,-0.207641825
8.243481562,0.473019123,0.089395761,-0.215705246
8.253481562,0.445477843,0.113533668,-0.222110599
8.263481562,0.452336967,0.102223933,-0.217712373
8.273481562,0.501049101,0.067561693,-0.195651412
8.283483125,0.569884896,0.016126841,-0.163066104
8.293483125,0.652456403,-0.048624873,-0.129102007
8.303483125,0.708498955,-0.107721724,-0.103655107
8.313481562,0.716091156,-0.16964601,-0.088488191
8.323481562,0.675320268,-0.216700077,-0.078120939
8.333481562,0.607025504,-0.255236953,-0.068451814
8.343481562,0.548068285,-0.293075681,-0.064926244
8.353481562,0.523738384,-0.32655111,-0.070371673
8.363483125,0.538224638,-0.346727103,-0.086114548
8.373483125,0.571420789,-0.348437518,-0.101787604
8.383481562,0.598508298,-0.359310925,-0.109763756
8.393481562,0.601475358,-0.381773323,-0.109222703
8.403481562,0.572747231,-0.40926227,-0.097633719
8.413481562,0.520387352,-0.449003398,-0.084892817
8.423481562,0.451080352,-0.515779674,-0.067544244
8.433483125,0.379347324,-0.593272328,-0.044261549
8.443483125,0.32655111,-0.635980546,-0.023143066
8.453481562,0.295466781,-0.601929128,-0.011780973
8.463481562,0.268902868,-0.503143489,-0.014119714
8.473481562,0.220644519,-0.392786354,-0.020926498
8.483481562,0.148876578,-0.295571506,-0.027070057
8.493481562,0.069690995,-0.205844134,-0.030543262
8.503483125,-0.005846853,-0.122626834,-0.025167648
8.513483125,-0.066531949,-0.056443948,0.000488692
8.523481562,-0.107093401,-0.010297443,0.041172318
8.533481562,-0.120078653,0.013631022,0.080738932
8.543481562,-0.111037843,0.028693212,0.108681649
8.553481562,-0.089099057,0.032794736,0.11986921
8.563481562,-0.064612091,0.025132742,0.102258839
8.573483125,-0.041521382,0.018779743,0.066776298
8.583481562,-0.016598081,0.000558505,0.029932396
8.593481562,0.019024089,-0.031258848,0.0145735
8.603481562,0.066898473,-0.06263987,0.03148574
8.613481562,0.114860117,-0.086481065,0.070616022
8.623481562,0.146956727,-0.095626593,0.116081849
8.633481562,0.150726631,-0.094108149,0.144705251
8.643483125,0.129328892,-0.102520637,0.14915584
8.653483125,0.0988729,-0.122626834,0.123935826
8.663481562,0.076445423,-0.14348352,0.083863072
8.673481562,0.070074968,-0.181566596,0.048310712
8.683481562,0.088418379,-0.250210404,0.045553092
8.693481562,0.143029734,-0.299131989,0.080058254
8.703481562,0.226142317,-0.331822008,0.120043747
8.713483125,0.324002922,-0.349397451,0.148352981
8.723483125,0.414864749,-0.348385185,0.138439521
8.733483125,0.488046408,-0.353097558,0.094631754
8.743481562,0.543827116,-0.362208188,0.036459927
8.753481562,0.597251654,-0.371283889,-0.026860617
8.763481562,0.661095798,-0.386817306,-0.088889621
8.773481562,0.726859808,-0.413433582,-0.151983276
8.783483125,0.789150596,-0.442877293,-0.213872641
8.793483125,0.835000396,-0.456874847,-0.262794226
8.803483125,0.864479005,-0.483072221,-0.281905591
8.813481562,0.885021567,-0.51131165,-0.262113541
8.823481562,0.900694609,-0.536636412,-0.210643783
8.833481562,0.923436224,-0.563409746,-0.157742858
8.843481562,0.959686756,-0.584074438,-0.14323917
8.853481562,1.008817792,-0.599939466,-0.1879545
8.863483125,1.055749655,-0.614443183,-0.271224171
8.873483125,1.070026398,-0.6510427,-0.352731049
8.883481562,1.055697322,-0.686699808,-0.393973172
8.893481562,1.048995256,-0.680085003,-0.367339432
8.903481562,1.052136779,-0.674726844,-0.288904339
8.913481562,1.062957883,-0.709738135,-0.195407063
8.923481562,1.08772409,-0.737837911,-0.112311937
8.933483125,1.109540701,-0.736459136,-0.064018674
8.943483125,1.080411196,-0.714886844,-0.078993604
8.953481562,0.949110031,-0.662282646,-0.15838863
8.963481562,0.728919327,-0.518310428,-0.297665894
8.973481562,0.442144245,-0.288851976,-0.496598542
8.983481562,0.133570045,-0.027035151,-0.734033108
8.993481562,-0.149487451,0.229772598,-0.981887341
9.003483125,-0.369521111,0.443435788,-1.21446991
9.013483125,-0.514383435,0.598857343,-1.411273241
9.023481562,-0.584283888,0.684064329,-1.55978334
9.033481562,-0.582014918,0.684361041,-1.648550749
9.043481562,-0.496197104,0.598194122,-1.662268996
9.053481562,-0.315031916,0.429001927,-1.624203444
9.063481562,-0.052761301,0.208427221,-1.578877211
9.073483125,0.296845585,-0.034662239,-1.558648825
9.083483125,0.67800808,-0.23734732,-1.573344469
9.093481562,1.026567698,-0.385892302,-1.628130436
9.103481562,1.276446581,-0.504644513,-1.706879616
9.113481562,1.391551018,-0.55806905,-1.787199736
9.123481562,1.373155236,-0.507541716,-1.857204795
9.13348,1.242465019,-0.378788799,-1.922776818
9.143483125,1.047180057,-0.159557998,-1.984264851
9.153483125,0.851092339,0.082257368,-2.040621519
9.163481562,0.704868674,0.287403375,-2.075947046
9.173481562,0.635648906,0.501310945,-2.071147203
9.183481562,0.641059458,0.725777686,-2.01225996
9.193481562,0.691342354,0.933349729,-1.895305395
9.203481562,0.748170316,1.113432765,-1.717194557
9.213483125,0.783408463,1.265817523,-1.493548036
9.223483125,0.778992832,1.373364687,-1.244891047
9.233483125,0.733998239,1.453632355,-0.987175703
9.243481562,0.651513934,1.533254266,-0.739740372
9.253481562,0.544577658,1.584968448,-0.510246992
9.263481562,0.450940728,1.605615616,-0.288904339
9.273481562,0.412630737,1.626629353,-0.069935344
9.283483125,0.435040772,1.644414306,0.144443452
9.293483125,0.492933333,1.6349895,0.36044541
9.303483125,0.549394727,1.596854091,0.588507593
9.313481562,0.587512732,1.556327581,0.809134662
9.323481562,0.615071476,1.510076284,1.042851686
9.333481562,0.632856369,1.484611988,1.27920413
9.343481562,0.645928919,1.468258262,1.504229426
9.353481562,0.666872859,1.463196754,1.706356049
9.363483125,0.689160705,1.480178833,1.859962463
9.373483125,0.692075431,1.518680811,1.954751253
9.383481562,0.650571465,1.565769792,2.000810623
9.393481562,0.555904806,1.6325984,2.025053263
9.403481562,0.408564121,1.710265636,2.046765089
9.413481562,0.218096346,1.796380162,2.075528145
9.423481562,0.008098328,1.833538175,2.11455369
9.433483125,-0.202894524,1.79381454,2.151153088
9.443483125,-0.410134912,1.670786262,2.174802303
9.453481562,-0.603203237,1.48515296,2.169985294
9.463481562,-0.771732211,1.307234168,2.11537385
9.473481562,-0.903853655,1.155477762,2.024756432
9.483481562,-1.000649571,1.06257391,1.934749842
9.493481562,-1.07349968,1.033304691,1.884641409
9.503483125,-1.120902777,1.032624006,1.892268538
9.513483125,-1.136732936,1.054004312,1.942045331
9.523481562,-1.11753428,1.060549259,2.016570807
9.533481562,-1.067338705,1.028627276,2.072752953
9.543481562,-0.983894467,0.965027452,2.059122086
9.553481562,-0.902073443,0.92478013,1.928606272
9.563481562,-0.868091881,0.893905282,1.687803149
9.573483125,-0.889454663,0.909054756,1.408899546
9.583483125,-0.957208395,1.014629722,1.113851666
9.593483125,-1.091249704,1.148862958,0.880588412
9.603481562,-1.264735341,1.209443331,0.76777035
9.613481562,-1.433508754,1.177957654,0.765187263
9.623481562,-1.54465127,1.062731028,0.845158219
9.633481562,-1.549032092,0.9051103,0.943088651
9.643483125,-1.456197977,0.759968698,0.973335207
9.653525312,-1.316781044,0.606083035,0.900485158
9.663481562,-1.200734138,0.475846559,0.75639081
9.673481562,-1.141235828,0.404584765,0.577354908
9.683481562,-1.139996648,0.348856419,0.394025534
9.693481562,-1.179406285,0.276564866,0.233525053
9.703481562,-1.220316768,0.208531931,0.11269591
9.713483125,-1.235256791,0.178145751,0.028710665
9.723483125,-1.210158944,0.180170342,-0.04012512
9.733483125,-1.155739546,0.137078166,-0.108507119
9.743481562,-1.073168039,0.030839968,-0.172106922
9.753481562,-0.951780379,-0.125297189,-0.245393291
9.763481562,-0.788958609,-0.311785609,-0.330425739
9.773481562,-0.59517473,-0.497802794,-0.419769138
9.783481562,-0.409977853,-0.649751186,-0.493160218
9.793483125,-0.278816342,-0.735726118,-0.533774018
9.803483125,-0.20685643,-0.719302535,-0.54681164
9.813481562,-0.201672792,-0.61587435,-0.555503368
9.823481562,-0.267803311,-0.445425481,-0.591980755
9.833481562,-0.361265689,-0.286443442,-0.653067291
9.843481562,-0.440189481,-0.171042264,-0.755465746
9.853481562,-0.393344849,-0.090163708,-0.82636106
9.863483125,-0.282149941,-0.0832173,-0.834808409
9.873483125,-0.119712137,-0.224449337,-0.806952953
9.883481562,0.072431162,-0.437431872,-0.765449047
9.893481562,0.232966542,-0.608212352,-0.727924466
9.903481562,0.302325934,-0.663120389,-0.697992086
9.913481562,0.271189272,-0.616502643,-0.681044936
9.923481562,0.17475982,-0.511817813,-0.673609793
9.933483125,0.054820791,-0.372592896,-0.672283351
9.943483125,-0.043196898,-0.216054305,-0.670223892
9.953481562,-0.083583817,-0.103742369,-0.662247717
9.963481562,-0.04160865,-0.044418629,-0.640553296
9.973481562,0.062849306,-0.024626596,-0.612453461
9.983481562,0.186750233,-0.045989424,-0.590427458
9.993481562,0.276215792,-0.091559969,-0.572607636
10.00348313,0.30173251,-0.132627577,-0.550005615
10.01348313,0.271957189,-0.147619948,-0.512533367
10.02348156,0.215722695,-0.131370932,-0.469929904
10.03348156,0.161477864,-0.03499385,-0.421985716
10.04348156,0.134983763,0.098262034,-0.371074438
10.05348156,0.134076193,0.21287781,-0.319412708
10.06348156,0.154548898,0.289986461,-0.278118223
10.07348313,0.199316606,0.311942697,-0.249808982
10.08348313,0.258518159,0.287246287,-0.235776529
10.09348156,0.305834055,0.227887645,-0.228655592
10.10348156,0.329238921,0.184446394,-0.225461632
10.11348156,0.300772578,0.172072008,-0.22504276
10.12348156,0.22176154,0.192248017,-0.214535877
10.13348156,0.119851761,0.25258404,-0.185772851
10.14348156,0.03515093,0.329238921,-0.15063937
10.15348313,-0.006736971,0.383344114,-0.126536369
10.16348156,-0.007609636,0.415336013,-0.129695415
10.17348156,0.013648475,0.461657047,-0.146153867
10.18348156,0.048205994,0.487348288,-0.166347325
10.19348156,0.082728609,0.502078891,-0.16519542
10.20348156,0.071977377,0.520649195,-0.1471138
10.21348313,0.030403635,0.530737162,-0.11894419
10.22348313,-0.014486233,0.5363397,-0.072640605
10.23348313,-0.075241141,0.529620171,-0.044645522
10.24348156,-0.118088976,0.51176542,-0.028274333
10.25348156,-0.115924768,0.498343855,-0.020228365
10.26348156,-0.083112575,0.515046656,-0.02872812
10.27348156,-0.04145157,0.551209867,-0.057019908
10.28348156,-0.004607669,0.5980196,-0.07827802
10.29348313,-0.007487462,0.657360792,-0.103096597
10.30348313,-0.026110126,0.714625061,-0.145351022
10.31348156,-0.037332594,0.763127744,-0.163554803
10.32348156,-0.079063416,0.761836231,-0.205390349
10.33348156,-0.114528507,0.727715015,-0.222738922
10.34348156,-0.193260312,0.641199052,-0.199962378
10.35348156,-0.443051815,0.574894011,-0.120061196
10.36348313,-0.649053037,0.324369431,0.020106193
10.37348313,-0.665912926,0.092415184,0.083775803
10.38348156,-0.508798361,-0.043353979,0.083932884
10.39348156,-0.240419105,-0.091856681,0.021886429
10.40348156,0.005218534,-0.070842914,-0.052796211
10.41348156,0.124023095,-0.094160512,-0.0879995
10.42348156,0.119677223,-0.116308741,-0.095434606
10.43348313,0.027471483,-0.139643788,-0.078243107
10.44348313,-0.112486467,-0.164584547,-0.03869395
