Time (s),Acceleration x (m/s^2),Acceleration y (m/s^2),Acceleration z (m/s^2)
0,-2.127564192,5.802098751,7.202304363
0.009998438,-1.737175226,5.788106918,7.482800484
0.020003125,-1.549613476,5.723855972,7.772689342
0.029996875,-1.533802152,5.699176788,7.92850399
0.039998438,-1.647881031,5.694608688,7.963181496
0.05,-1.797470808,5.684361458,7.881971359
0.059998438,-1.858130336,5.69299984,7.742388248
0.070004688,-1.913848162,5.670541763,7.621098042
0.08,-1.929218888,5.65792942,7.47051239
0.089998438,-1.953946233,5.67155695,7.277127743
0.099998438,-1.932273865,5.730492592,7.131598949
0.109996875,-1.901953697,5.764997959,7.015862942
0.12000625,-1.853533387,5.826375961,6.910278797
0.129998438,-1.737701893,5.935130119,6.865497589
0.139998438,-1.475239992,5.98436451,6.973351479
0.15,-1.156159997,5.908554554,7.155598164
0.16,-0.956512272,5.831930161,7.352123737
0.17,-0.907162964,5.731268406,7.516279697
0.179996875,-0.978424013,5.723042011,7.574822903
0.19,-1.064500332,5.74819088,7.53695631
0.199998438,-1.142120361,5.731919765,7.518348694
0.21,-1.215258479,5.675272942,7.519508362
0.220001563,-1.238606691,5.616653442,7.467217922
0.23,-1.261322856,5.541552067,7.502968311
0.24,-1.31761539,5.522532463,7.58892107
0.25,-1.326761127,5.502660751,7.736488819
0.260001563,-1.271254063,5.458281517,7.794313908
0.270001563,-1.122449636,5.459938526,7.821138382
0.280001563,-0.941074431,5.387853622,7.830916405
0.29,-0.832693756,5.248118877,7.839937687
0.3,-0.870464683,5.183235645,7.756916523
0.31,-0.969689965,5.241855621,7.699848175
0.320001563,-1.071481824,5.300178051,7.808726788
0.330001563,-1.129680037,5.244900703,7.888588905
0.340001563,-1.147981405,5.149305344,7.904409885
0.350001563,-1.155920506,5.053479671,7.920526505
0.36,-1.168379903,5.055950642,7.925142288
0.37,-1.231816769,5.091920853,7.909972668
0.38,-1.302100897,5.159686565,7.847158432
0.39,-1.369473696,5.218114376,7.802473068
0.4,-1.416505456,5.265395164,7.749513626
0.410001563,-1.342323542,5.282231331,7.690989494
0.420001563,-1.224519253,5.331456184,7.651810646
0.43,-1.138471603,5.396405697,7.577322483
0.44,-1.082418561,5.525079727,7.493659496
0.45,-1.09680295,5.633144379,7.403131008
0.46,-1.127247572,5.714461327,7.352248192
0.47,-1.189774513,5.736133575,7.328680038
0.480001563,-1.241738319,5.748353481,7.342096806
0.490001563,-1.256611109,5.734122276,7.365952969
0.5,-1.235398412,5.735081196,7.367063522
0.51,-1.18064785,5.743191719,7.371670246
0.52,-1.16210711,5.783414364,7.412918568
0.53,-1.117172718,5.815151691,7.443362236
0.540001563,-1.121376991,5.873139381,7.493199825
0.550001563,-1.166263461,5.978254318,7.548400402
0.560001563,-1.151266217,6.068324089,7.558513641
0.57,-1.114022017,6.12816,7.558504105
0.58,-1.054415941,6.135792732,7.533969402
0.59,-0.996169806,6.12432003,7.560074806
0.6,-0.98579812,6.127489567,7.566251755
0.61,-0.993766069,6.119981289,7.589917183
0.620001563,-0.953131676,6.18543911,7.606934071
0.630001563,-0.896820009,6.25259161,7.614058971
0.64,-0.815819383,6.331428051,7.598603249
0.65,-0.724514127,6.353281975,7.595709801
0.66,-0.666689396,6.356269836,7.557346344
0.67,-0.675988436,6.361958504,7.596448421
0.68,-0.716287673,6.310435295,7.714797497
0.690001563,-0.79353416,6.235199928,7.752865314
0.700001563,-0.914450943,6.230746746,7.785129547
0.71,-1.009146452,6.228936672,7.778148174
0.72,-1.050144672,6.173525333,7.753257751
0.73,-1.091286659,6.126895905,7.642933369
0.74,-1.081594944,6.116687298,7.549482822
0.75,-1.085128784,6.121063709,7.541313648
0.760001563,-1.146918297,6.138177395,7.573127747
0.770001563,-1.269319534,6.131770611,7.55840826
0.780001563,-1.439307809,6.174406528,7.536496639
0.79,-1.602132678,6.182537079,7.547049999
0.8,-1.684292078,6.200455189,7.581105232
0.81,-1.741934896,6.197065353,7.608255386
0.82,-1.752325773,6.177959442,7.641199589
0.830001563,-1.778403401,6.189949512,7.684496403
0.840001563,-1.853294015,6.238465786,7.798929691
0.850001563,-1.887674689,6.266717434,7.897599697
0.86,-1.943727732,6.264083862,7.995685101
0.87,-1.999579668,6.296261787,8.057589531
0.88,-2.000403404,6.178716183,8.148713112
0.89,-1.997338772,5.899590492,8.276248932
0.9,-2.130686283,5.651235104,8.349452019
0.910001563,-2.420250416,5.452976227,8.483613968
0.920001563,-2.860362291,5.362963676,8.646544456
0.93,-3.338263988,5.272711754,8.860711098
0.94,-3.635556936,5.012672901,8.979846001
0.95,-3.661490917,4.615675926,9.083084106
0.96,-3.602085829,4.176569939,9.066544533
0.97,-3.525327682,3.856742859,8.950387955
0.980001563,-3.488811493,3.661490917,8.788578033
0.990001563,-3.514266491,3.474101543,8.64302063
1,-3.590114832,3.301709414,8.513782501
1.01,-3.608770609,3.168275595,8.466107368
1.02,-3.579226017,3.051352501,8.418338776
1.03,-3.594300032,2.950738668,8.508724213
1.04,-3.602574348,2.868263006,8.617134094
1.050001563,-3.489184856,2.63860178,8.45851326
1.060001563,-3.54401207,2.295330763,8.57701683
1.07,-3.417579174,2.727828741,8.422236443
1.08,-2.968302488,3.0819695,7.886557579
1.090001563,-2.297696114,2.878912449,8.081791878
1.1,-1.614323974,2.426781893,8.264122963
1.11,-1.165487766,2.183349133,8.241121292
1.120001563,-0.919919312,2.061675787,8.310762405
1.130001563,-0.784139335,1.992186427,8.341533661
1.14,-0.537775993,2.219970703,8.618177414
1.15,-0.565031588,2.211418629,8.535951614
1.16,-0.503270745,2.128665447,8.138590813
1.17,0.165439337,1.960755348,7.633366108
1.18,0.681945205,2.005249262,8.30460453
1.190004688,0.509352028,2.051514626,7.593976498
1.200001563,0.488953441,1.942492366,6.793575764
1.21,0.76164341,1.702564597,6.495689392
1.22,1.114951015,1.546060443,6.765084743
1.23,1.277603388,1.486751318,6.932833195
1.24,1.348356843,1.604526877,7.355131149
1.25,1.578439713,1.833900928,7.799283981
1.260001563,1.8665483,1.956905484,8.055693626
1.270001563,2.358891964,1.93872869,8.147295952
1.280001563,3.026988983,1.750008106,8.295305252
1.29,3.471984863,1.501988053,8.328766823
1.3,3.707861662,1.345579624,8.202688217
1.31,3.756780148,1.414398551,8.073094368
1.32,3.737980843,1.744807959,7.976493359
1.330001563,3.744531393,2.192983389,7.809071541
1.34,3.919422865,2.510128736,7.546944618
1.350001563,4.190312386,2.501002073,7.286044121
1.36,4.417100906,2.332048178,7.153883934
1.37,4.49169445,2.201765299,7.118047714
1.38,4.506356716,2.165804386,7.129463196
1.39,4.524964333,2.258124828,7.22098875
1.4,4.625224113,2.488743782,7.335460186
1.410001563,4.840845585,2.842491865,7.687973022
1.420001563,5.089488506,3.196326256,8.089738846
1.43,5.527981758,3.43615818,8.177625656
1.44,6.022872925,3.504852533,8.149987221
1.45,6.420329094,3.39641428,8.193733215
1.46,6.455092907,3.21064353,8.21989727
1.470001563,6.175853729,3.033099174,8.341637611
1.480001563,5.674210072,2.922305107,8.491161346
1.490001563,5.104868889,2.822323084,8.56467247
1.5,4.693372726,2.796532869,8.794774055
1.51,4.428803921,2.851608992,9.181917191
1.52,4.433457851,2.88080883,9.222407341
1.53,4.676421642,2.876968384,9.471232414
1.540004688,4.879105091,2.82670927,9.766543388
1.550001563,4.921013355,2.79786396,9.675983429
1.560001563,4.76965189,2.7579,9.280587196
1.57,4.31590271,2.795326233,8.981358528
1.58,3.943173409,2.960535526,8.746077538
1.59,3.656338453,3.255290508,8.854848862
1.6,3.547325611,3.742903233,9.203713417
1.61,3.7193923,4.337852955,9.36712265
1.620001563,3.971233368,4.789600372,9.791853905
1.630001563,4.424705029,5.038434505,10.05847263
1.640001563,5.048576355,5.146499157,9.925421715
1.65,5.651685238,5.189020157,9.642503738
1.66,6.164456367,5.229789734,9.153512001
1.67,6.414564133,5.267004013,8.54842186
1.68,6.320165634,5.326274872,8.017233849
1.690001563,6.050741196,5.402266979,7.517045975
1.700001563,5.725311756,5.553877354,7.349403858
1.71,5.527560234,5.789908409,7.59736681
1.72,5.54084444,5.928828239,7.982172489
1.73,5.743076801,5.946602821,8.267572403
1.74,6.030045509,5.814471722,8.341637611
1.75,6.348608494,5.584810257,8.273566246
1.760001563,6.453493595,5.228285313,8.223316193
1.770001563,6.418203354,4.843527317,8.116094589
1.780001563,6.229540348,4.480748177,8.114600182
1.79,5.813418388,4.158364296,8.299892426
1.8,5.361804962,3.973120213,8.353705406
1.81,5.012931347,3.792348385,8.495192528
1.82,4.868599415,3.607401133,8.663954735
1.830001563,5.157167912,3.375383615,8.786664009
1.840001563,5.653820992,3.105164528,9.058979034
1.850001563,6.189489841,2.855085373,9.374659538
1.86,6.415234566,2.693170309,9.589026451
1.87,6.275642872,2.50960207,9.705921173
1.88,5.889151573,2.304945707,9.769846916
1.89,5.468978882,1.983356595,9.886741638
1.9,5.183504105,1.435343027,10.1593647
1.910001563,4.721978664,0.795037746,10.59611416
1.92004375,4.179337502,0.321455091,10.95609665
1.93,3.506614685,0.005650316,11.84129143
1.94,2.81309104,-0.193077996,12.63147259
1.95,2.255414486,-0.301793903,13.53766918
1.96,1.813981175,-0.522951066,14.70317554
1.97,1.47497189,-0.907172561,15.39431572
1.980001563,1.35981071,-1.419311404,15.75583839
1.990001563,1.341183901,-1.780548573,16.19922638
2,1.307530999,-1.863857269,16.36094856
2.01,1.184219956,-1.589146495,16.30161095
2.02,0.849414825,-0.926623046,15.83948326
2.03,0.639366746,-0.088901497,15.16569614
2.04,0.302081198,0.568919778,14.70387459
2.050001563,-0.073367916,0.959394872,14.17318535
2.060001563,-0.445580065,1.186614156,13.68269062
2.07,-0.840929806,1.383350492,13.52751637
2.080001563,-1.072391629,1.608711958,13.39016724
2.09,-1.08484149,1.837846637,13.18309689
2.1,-0.937665105,1.989447474,12.85251427
2.11,-0.805744588,2.203230619,12.45123863
2.120001563,-0.70917207,2.546319485,12.03766346
2.130001563,-0.584443748,2.874631643,11.54753113
2.139998438,-0.499631554,3.187132359,11.12957096
2.15,-0.46843034,3.5490973,10.72838879
2.159998438,-0.411218494,3.848765373,10.35076523
2.17,-0.409351021,4.03862524,10.0031271
2.18,-0.387400985,4.152263641,9.648201942
2.190001563,-0.310939759,4.137582779,9.364230156
2.200001563,-0.27983427,4.069989681,9.149422646
2.21,-0.271866381,3.961532116,8.936912537
2.22,-0.256668001,3.86614728,8.831204414
2.23,-0.250701636,3.824698687,8.864082336
2.240001563,-0.259416521,3.815409184,8.976034164
2.25,-0.263161063,3.804846048,9.025680542
2.260001563,-0.344305336,3.764374495,9.017463684
2.270001563,-0.432747155,3.663750887,8.97899437
2.280001563,-0.494191945,3.487307787,8.814196587
2.29,-0.591971159,3.265336752,8.668359756
2.3,-0.652783871,3.043700695,8.552165031
2.31,-0.749595761,2.896888256,8.528183937
2.32,-0.888133883,2.82891202,8.566281319
2.33,-1.069039702,2.882053614,8.639543533
2.340001563,-1.199916363,2.957298756,8.553659439
2.350001563,-1.24206388,2.990798235,8.4662323
2.36,-1.20900476,2.890443087,8.309978485
2.37,-1.060554743,2.689330101,8.157993317
2.38,-0.9154948,2.455291986,8.075259209
2.39,-0.845928907,2.292304277,8.085152626
2.4,-0.846130013,2.357340574,8.082862854
2.410001563,-0.851694107,2.453616142,8.197086334
2.420001563,-0.777617514,2.475795984,8.364412308
2.43,-0.612340987,2.458701372,8.402939796
2.44,-0.397121429,2.415222645,8.317046165
2.45,-0.212202877,2.282104969,8.282673836
2.46,-0.030138209,2.181088924,8.23815155
2.47,0.165228635,2.218486309,8.145638466
2.480001563,0.29435271,2.311371803,8.151825905
2.490001563,0.445848227,2.484826803,8.171439171
2.5,0.674772203,2.680519342,8.05182457
2.510001563,0.92609632,2.840969086,7.90101862
2.52,1.199657798,2.923530817,7.895559788
2.53,1.516171217,2.927533865,7.827861309
2.54,1.748954654,2.896591187,7.701380253
2.550001563,1.918071508,2.835041046,7.539321899
2.560001563,1.983739734,2.867832184,7.38156414
2.57,2.010037661,2.926758289,7.308491707
2.58,2.039562941,3.059962034,7.37003231
2.59,2.114798307,3.160058737,7.342269421
2.6,2.168112278,3.261094093,7.204593182
2.61,2.191537142,3.329635382,7.32215786
2.620001563,2.114807844,3.286597252,7.328296661
2.630001563,2.032868624,3.198988438,7.195361137
2.64,2.096362829,3.180361748,7.237844944
2.65,2.184479237,3.19835639,7.468194962
2.66,2.45288825,3.213708162,7.694025517
2.67,2.765178442,3.2727108,7.938061714
2.68,2.973923922,3.45443058,7.970651627
2.690001563,3.122182608,3.706195354,7.925008297
2.700001563,3.219501972,3.940520763,7.897781372
2.71,3.326264381,4.022727966,7.872776508
2.72,3.490037203,4.045127869,7.886538506
2.73,3.794752121,4.034507275,7.841594219
2.74,4.050921917,3.99452424,7.924492359
2.75,4.262876034,4.085791111,8.140209198
2.760001563,4.470549107,4.282498837,8.272665977
2.770001563,4.677043915,4.56754303,8.260378838
2.780001563,4.852165699,4.774325371,8.408703804
2.790001563,4.972488403,4.854837418,8.468645096
2.8,5.111610889,4.785233498,8.443228722
2.81,5.251250267,4.604049683,8.373174667
2.82,5.350293636,4.48783493,8.175566673
2.83,5.371879578,4.505073547,7.917816162
2.840001563,5.230229378,4.57703352,7.738049984
2.850001563,5.030217648,4.744895935,7.680828571
2.86,4.850240707,4.907902718,7.65783453
2.87,4.811694145,4.999964237,7.49821806
2.88,4.804607391,5.14820385,7.453647614
2.89,4.859779358,5.221830368,7.45600462
2.9,4.883730888,5.183235645,7.434187412
2.910001563,4.816951752,5.150693893,7.39210701
2.920001563,4.647738934,5.139632702,7.408109665
2.93,4.46635437,5.102694988,7.404058933
2.94,4.313460827,5.029901505,7.396944523
2.95,4.123935699,5.021253586,7.402574539
2.96,3.971779346,5.010145664,7.43011713
2.97,3.869183064,4.947253704,7.478872776
2.980001563,3.823396206,4.841717243,7.463272095
2.990001563,3.709307909,4.766539574,7.421163082
3,3.52100873,4.703093052,7.393783092
3.01,3.216830015,4.707871914,7.321602345
3.02,2.94315362,4.737665176,7.357927322
3.03,2.768903732,4.709203243,7.450602055
3.04,2.618001938,4.68252182,7.49294138
3.050001563,2.586590052,4.608589172,7.515284061
3.060001563,2.591531754,4.519668579,7.54119873
3.070001563,2.582424164,4.421324253,7.571087837
3.08,2.554555655,4.357140541,7.488603115
3.09,2.543532848,4.342018604,7.506406307
3.1,2.420269728,4.407667637,7.562736988
3.11,2.256697893,4.500859737,7.575014591
3.120001563,2.229959488,4.452525616,7.614183426
3.130001563,2.270181894,4.256574631,7.672027588
3.14,2.333436728,3.932342052,7.687724113
3.15,2.400857449,3.682770491,7.599272728
3.16,2.377269745,3.478181124,7.547844887
3.17,2.25689888,3.32926178,7.505659103
3.18,2.06898284,3.266811371,7.441705227
3.190001563,1.938920259,3.23810029,7.490231037
3.200001563,1.815896511,3.206659555,7.619785786
3.210001563,1.854270816,3.180514812,7.67827177
3.22,1.976288915,3.173839808,7.723493099
3.23,2.161427736,3.106265783,7.747004509
3.24,2.364647627,2.941113949,7.658783913
3.25,2.611298323,2.703580379,7.600823879
3.260001563,2.797222376,2.485784531,7.547664165
3.270001563,2.778212309,2.39218092,7.454796791
3.280001563,2.593839645,2.431905508,7.370923042
3.29,2.351814747,2.595486879,7.314831734
3.3,2.138730764,2.702919483,7.22901392
3.31,2.059473038,2.611729145,7.169417381
3.32,2.1659863,2.38084197,7.194135189
3.33,2.327432156,2.005737543,7.415905476
3.340001563,2.614947081,1.672062516,7.514326096
3.350001563,2.646943092,1.678613067,7.800078869
3.36,2.491961718,1.996697068,7.999611855
3.37,2.202435732,2.298050404,8.216603279
3.38,2.110795259,2.344622374,8.381285667
3.39,2.273131609,2.103018761,8.30491066
3.4,2.501883268,1.639415145,8.146251678
3.410001563,2.664813519,1.1895926,7.954380512
3.420001563,2.79588151,1.068014979,7.858603001
3.43,2.821173906,1.183185697,7.875429153
3.44,2.824382067,1.378600478,8.018535614
3.45,2.711136341,1.634569287,8.207983971
3.46,2.621219873,1.78234899,8.33025074
3.47,2.668232441,1.632807136,8.369822502
3.480001563,2.737635374,1.300252557,8.281248093
3.490001563,2.765609264,0.968483269,8.092583656
3.5,2.71401906,0.803896308,7.926665306
3.51,2.752776384,0.919153154,7.926176548
3.52,2.582462549,1.080867052,8.256931305
3.53,2.672618628,1.195156693,8.319046974
3.54,2.747576237,1.341892481,8.667162895
3.550001563,2.934199333,1.406373143,8.69610405
3.560001563,3.105672121,1.356133223,8.670851707
3.57,3.017584562,1.260451317,8.55907917
3.58,2.795536757,1.152252674,8.337280273
3.59,2.394642115,1.255844951,8.362477303
3.6,1.920944571,1.622061968,8.542769432
3.61,1.584042072,2.086422205,8.870201111
3.620001563,1.570739865,2.46604681,9.432416916
3.630001563,2.071367502,2.530335903,9.72985363
3.64,2.880348921,2.431848049,10.09087181
3.65,3.608042717,2.289871931,10.12065411
3.66,4.097005844,2.113926888,9.653296471
3.67,4.105328083,2.121798992,9.273862839
3.68,3.455847979,2.660704851,9.277492523
3.690001563,2.783632755,3.426552534,9.504118919
3.700001563,2.554479122,3.910851717,9.840216637
3.710001563,2.807565212,3.865294933,10.21651745
3.72,3.424110413,3.544471741,10.63399982
3.73,3.872314692,3.312741756,10.88061237
3.74,4.114722729,3.46318388,10.85561752
3.75,4.252762794,3.723883629,10.86152554
3.760001563,4.178293705,3.96247077,11.08020306
3.770001563,4.132411003,4.112021923,11.14491272
3.780001563,4.214972973,4.17566967,11.29590225
3.79,4.430211544,4.11137104,11.52204895
3.8,4.564640999,3.953459024,11.69408607
3.81,4.520874977,3.67551136,11.50392914
3.82,4.42587328,3.630078793,11.12690926
3.83,4.233771801,3.67638278,10.91648769
3.840001563,3.918867588,3.663272142,10.74122143
3.850001563,3.799339294,3.411287069,10.61343861
3.86,3.702355146,3.043863535,10.8848753
3.87,3.475566626,2.898995161,11.29985619
3.88,3.334672689,2.854970455,11.68206596
3.89,3.353874207,2.667619467,11.91453457
3.9,3.576841354,2.301661015,11.88333321
3.910001563,3.939955711,2.410922766,11.63609791
3.920001563,4.053105354,2.405521393,11.17286777
3.93,3.992130041,2.457896948,10.65202332
3.94,3.743774652,2.30895853,10.47019958
3.95,3.528536081,2.022228956,10.3784523
3.96,3.297035933,1.711585999,10.39711857
3.97,3.135973215,1.437603116,10.42006302
3.980001563,3.037006378,1.29907465,10.42924786
3.990001563,2.992062569,1.265977144,10.44101715
4,2.950317144,1.293184876,10.391325
4.01,2.893325567,1.296010017,10.39519215
4.02,2.754720449,1.300568581,10.3309803
4.03,2.59224987,1.226472855,10.09556389
4.04,2.371533394,1.072583199,9.936367989
4.050001563,2.049417496,0.861347556,9.866868973
4.060001563,1.725769281,0.659305632,9.749619484
4.07,1.407139301,0.487277478,9.679615021
4.08,1.110708475,0.312002778,9.754628181
4.09,0.860274971,0.078347854,9.775486946
4.1,0.624446094,-0.164060265,9.697924614
4.11,0.459399402,-0.313745767,9.659674644
4.120001563,0.361850053,-0.386290073,9.749858856
4.130001563,0.320842177,-0.351631612,9.894479752
4.14,0.395206064,-0.308248669,10.04266071
4.15,0.563240707,-0.303613484,10.10385609
4.16,0.74122566,-0.327363968,10.03768063
4.17,0.870024145,-0.345033169,9.903949738
4.18,0.92713064,-0.237725064,9.756400108
4.190001563,0.954769313,-0.118761979,9.589696884
4.200001563,1.019441485,-0.006646303,9.429477692
4.210001563,1.08668983,0.062632315,9.499138832
4.22,1.149341226,0.091353156,9.581739426
4.23,1.254619122,0.047031697,9.604502678
4.24,1.379625201,0.052672435,9.630618095
4.25,1.55566597,0.104224384,9.648411751
4.260001563,1.739444971,0.207050562,9.617355347
4.270001563,1.944809914,0.372164279,9.606265068
4.280001563,2.110421658,0.524751544,9.648939133
4.29,2.199696779,0.642680347,9.67988205
4.3,2.253872633,0.655982494,9.6546278
4.31,2.258919716,0.60490942,9.595262527
4.32,2.25687027,0.526571095,9.594255447
4.33,2.228714466,0.475411832,9.590406418
4.340001563,2.138749838,0.454342842,9.529679298
4.350001563,2.095730782,0.49088794,9.478078842
4.36,2.113582134,0.500665843,9.443784714
4.37,2.134650946,0.516611218,9.42507267
4.38,2.159043074,0.515059829,9.457134247
4.39,2.156256199,0.458815217,9.512432098
4.4,2.113237143,0.36422509,9.513015747
4.410001563,2.095223188,0.259665519,9.466931343
4.420001563,2.057624817,0.153085247,9.400650978
4.43,2.053976059,0.012373234,9.319831848
4.44,2.019987822,-0.111416563,9.21704483
4.45,1.954405904,-0.18739894,9.170320511
4.46,1.863225102,-0.229240015,9.232721329
4.47,1.741647601,-0.262107611,9.318979263
4.480001563,1.659564734,-0.288510859,9.492378235
4.490001563,1.655753255,-0.330706269,9.615841866
4.5,1.688170671,-0.413191319,9.716993332
4.51,1.752641797,-0.479051024,9.758056641
4.52,1.877437115,-0.528285384,9.791624069
4.53,1.968483806,-0.560674131,9.744515419
4.54,2.043470144,-0.525699615,9.65566349
4.550001563,2.050346375,-0.420670807,9.559568405
4.560001563,2.025140285,-0.264923185,9.443861008
4.57,2.047549963,-0.192599148,9.367209435
4.58,2.120649815,-0.162930205,9.320492744
4.59,2.222958803,-0.182888269,9.321575165
4.6,2.322136164,-0.173091203,9.300285339
4.61,2.36618948,-0.143996865,9.305016518
4.620001563,2.437048197,-0.115745284,9.338526726
4.630001563,2.492402077,-0.074038289,9.391207695
4.64,2.494202614,-0.039494749,9.492685318
4.65,2.522799015,0.038297649,9.587686539
4.66,2.599365473,0.045327026,9.651936531
4.67,2.714239359,0.031450231,9.702033043
4.68,2.813263416,0.014336479,9.676222801
4.690001563,2.868780136,0.020657171,9.595921516
4.700001563,2.889705658,0.042578481,9.597664833
4.710001563,2.925599337,0.158965409,9.610334396
4.72,3.004416466,0.308114588,9.675745964
4.73,3.089535236,0.438751817,9.802025795
4.74,3.179547548,0.559544086,9.914101601
4.75,3.229174614,0.634549618,9.991711617
4.760001563,3.296767712,0.704651833,10.0151186
4.770001563,3.365280151,0.698311985,9.976389885
4.780001563,3.339355707,0.66243726,9.81421566
4.79,3.243530273,0.637077868,9.663667679
4.8,3.117978334,0.630958319,9.552146912
4.81,2.978472948,0.622425377,9.503113747
4.82,2.850622654,0.621649683,9.487877846
4.83,2.791045189,0.590113223,9.47354126
4.840001563,2.729092836,0.546289742,9.471567154
4.850001563,2.693409681,0.527002096,9.489379883
4.86,2.645056486,0.519560874,9.589533806
4.87,2.538035631,0.528563082,9.661475182
4.88,2.420422792,0.564638913,9.700720787
4.89,2.316734791,0.580747128,9.711590767
4.9,2.276167393,0.583696783,9.682467461
4.910001563,2.250683546,0.534452856,9.649935722
4.920001563,2.22837925,0.548540294,9.583472252
4.93,2.21976018,0.591348648,9.568637848
4.94,2.189056873,0.666191399,9.609818459
4.95,2.166331053,0.771938503,9.690752029
4.96,2.18099308,0.893381953,9.816092491
4.97,2.244822502,1.019307375,9.96595192
4.980001563,2.350952625,1.107653379,10.0944519
4.990001563,2.509544611,1.19141221,10.16408443
5,2.584779978,1.311275482,10.21325302
5.01,2.620779276,1.536330462,10.21187401
5.02,2.687232733,1.730758786,10.20251656
5.03,2.732961893,1.894148707,10.14069939
5.04,2.818186045,2.069528818,10.01196766
5.050001563,2.897644758,2.185733795,9.960195541
5.060001563,2.991181374,2.279538393,9.896661758
5.07,3.087093115,2.328763247,9.845100403
5.08,3.157760382,2.437776089,9.823313713
5.09,3.235016584,2.525346279,9.794133186
5.1,3.227565765,2.632807732,9.786050797
5.11,3.202234983,2.72030139,9.78047657
5.120001563,3.19900775,2.720780373,9.745684624
5.130001563,3.218161345,2.62106657,9.684804916
5.14,3.172805548,2.498416424,9.598200798
5.149998438,3.122699738,2.354984522,9.539657593
5.16,3.033961058,2.15231061,9.459290504
5.17,2.952558041,2.022391558,9.402864456
5.18,2.84576726,2.00134182,9.411836624
5.190001563,2.773299456,2.077831745,9.447366714
5.200001563,2.738286734,2.157520294,9.564864159
5.210001563,2.829448223,2.08940053,9.596632004
5.22,3.008764505,1.950144291,9.516807556
5.23,3.232555151,1.902681589,9.443678856
5.24,3.489462614,1.937972069,9.429898262
5.25,3.65039134,2.064654112,9.423329353
5.26,3.711070061,2.24477458,9.41138649
5.270001563,3.735730171,2.40365386,9.338267326
5.280001563,3.764527559,2.540774584,9.233985901
5.29,3.846964836,2.61538744,9.123746872
5.3,3.958697319,2.668261051,9.033456802
5.31,4.067920685,2.69311285,8.830190659
5.32,4.246949673,2.781047106,8.728359222
5.33,4.389797211,2.84734726,8.539484978
5.340001563,4.523125648,2.934745312,8.432522774
5.350001563,4.640106201,3.014587164,8.344693184
5.36,4.749760628,3.050969362,8.298207283
5.37,4.812967777,3.086939812,8.228585243
5.38,4.813753128,3.171742439,8.179741859
5.39,4.792798996,3.211141586,8.117377281
5.4,4.815563202,3.180457354,8.046653748
5.410001563,4.812948704,3.125381231,7.912836075
5.420001563,4.818110466,3.08327198,7.723474026
5.43,4.824095726,3.063132048,7.581229687
5.44,4.797999382,2.973665476,7.484369755
5.45,4.687731743,3.011876822,7.417973995
5.46,4.585116386,3.156572819,7.401013374
5.47,4.545075893,3.189622402,7.526421547
5.480001563,4.547374249,3.063591719,7.848595142
5.490001563,4.479781151,2.917114496,8.239702225
5.5,4.243310452,2.851360083,8.562804222
5.51,4.134814739,2.875254154,8.787524223
5.52,4.259820938,2.737798214,8.808612823
5.53,4.444088459,2.510425806,8.757663727
5.54,4.510043621,2.352446795,8.714214325
5.550001563,4.427970409,2.459237576,8.514317513
5.560001563,4.201612949,2.580719471,8.37659359
5.57,3.942991495,2.69061327,8.428595543
5.58,3.728078365,2.69243288,8.701171875
5.59,3.634034157,2.598474979,8.904295921
5.6,3.6848104,2.425029278,8.970833778
5.61,3.787971735,2.321092367,9.000935555
5.620001563,3.845298529,2.395733833,8.869597435
5.630001563,3.974173546,2.673604965,8.571940422
5.64,4.261975765,2.934563398,8.272856712
5.65,4.647078037,3.047253609,8.045534134
5.66,5.073150158,3.037504435,7.822258949
5.67,5.526564121,3.046458721,7.655134201
5.68,5.715332508,3.101812601,7.581048965
5.690001563,5.602833748,3.281703472,7.397538185
5.700001563,5.452315331,3.324703217,7.188580513
5.710001563,5.543045998,3.495831251,6.96325779
5.72,5.730282307,3.485986233,6.905643463
5.73,6.061543941,3.212213993,6.872785568
5.74,6.60974884,2.870705128,6.690893173
5.75,7.158750057,2.723614931,6.629304886
5.76,7.49900341,2.766318083,6.78651762
5.770001563,7.476162434,3.014395475,6.881902695
5.780001563,7.269447327,3.351144791,6.751008034
5.79,7.200072765,3.538074493,6.55097723
5.8,7.335268497,3.468901157,6.367197037
5.81,7.511251926,3.156055689,6.228640079
5.82,7.575770855,2.753868103,6.11657238
5.83,7.59946394,2.479358673,5.944084167
5.840001563,7.547988892,2.371140718,5.88809824
5.850001563,7.430969715,2.491157293,5.776586056
5.86,7.279953003,2.791782618,5.769249916
5.87,7.145092487,3.07286191,5.890530586
5.88,7.122405052,3.189229727,5.998470783
5.890001563,7.215511799,3.189153194,6.044037342
5.9,7.244911671,3.123858452,5.999553204
5.910001563,7.251318455,3.009473085,5.813399315
5.920001563,7.255445957,2.99203372,5.608867168
5.93,7.215922356,3.05847764,5.535384655
5.94,7.139863491,3.242026806,5.537185192
5.95,7.06482935,3.537001848,5.583508015
5.96,7.018142223,3.768377542,5.614048481
5.97,7.105205059,3.854817867,5.56750536
5.980003125,7.215682983,3.751101017,5.514564514
5.990001563,7.218019962,3.520079613,5.4726758
6,7.050004482,3.325986624,5.404335499
6.01,6.625981808,3.227671146,5.495583534
6.02,5.994458199,3.149955273,5.608407497
6.03,5.550889492,3.086518526,5.646341324
6.04,5.281962872,2.992847681,5.802232742
6.050001563,5.134279251,2.880368233,5.981156349
6.060001563,4.939582825,2.683047771,6.082421303
6.07,4.673548698,2.488513947,6.163613319
6.08,4.357916355,2.31526947,6.305465221
6.09,3.930675745,2.237831593,6.482760429
6.1,3.452132225,2.233464479,6.640366077
6.11,3.10385251,2.162691832,6.787590504
6.120001563,2.86387682,1.993977308,7.023763657
6.130001563,2.773701668,1.67642951,7.268690586
6.14,2.756013393,1.290005445,7.490058422
6.15,2.591263533,1.054837346,7.732447624
6.159998438,2.189870834,1.019010544,7.913114071
6.17,1.695046902,1.040778637,8.047514915
6.18,1.068934441,1.04348886,8.175882339
6.190001563,0.594078004,0.957010269,8.30525589
6.200001563,0.4297975,0.743294239,8.462813377
6.210001563,0.424357861,0.467874885,8.744054794
6.22,0.396326542,0.296028674,9.043397903
6.23,0.061722517,0.459686697,9.35372448
6.24,-0.463086486,0.857105017,9.547962189
6.25,-0.922619939,1.085837483,9.697569847
6.26,-1.421025634,0.999493003,9.978717804
6.270001563,-1.921375513,0.935223043,10.0807476
6.280001563,-2.292505503,1.001963735,9.902389526
6.29,-2.391137123,1.045605302,9.817310333
6.3,-2.312233686,1.072142601,10.11922741
6.31,-2.252091408,1.268036246,10.36980438
6.32,-2.486502886,1.783910036,10.44520283
6.33,-2.899234533,2.27462554,10.70536613
6.340001563,-3.407820463,2.521525145,11.04432774
6.350001563,-3.743247986,2.692586184,11.27461243
6.36,-3.813723803,2.690862417,11.26699829
6.370001563,-3.696666479,2.430124283,11.08891869
6.38,-3.438964128,2.18400979,11.05569553
6.390001563,-3.184470177,2.205729961,11.14154243
6.4,-3.201928616,2.665340185,11.29794979
6.410001563,-3.250377655,3.25808692,11.65585423
6.420001563,-3.061906099,3.566785812,12.03142834
6.43,-2.799769878,3.539080143,12.04725838
6.44,-2.623824596,3.293080568,11.80137539
6.45,-2.444805384,3.000758171,11.41926861
6.46,-2.291949987,2.809289217,10.99584103
6.47,-1.962823987,2.851666451,10.70707989
6.480003125,-1.48462522,3.05176425,10.76801777
6.490001563,-0.843477249,3.347084284,11.15278435
6.5,0.015102624,3.600113153,11.37747669
6.51,0.913952947,3.672398806,11.24577522
6.52,1.51817286,3.594932079,11.09370708
6.53,1.888900518,3.382997274,10.87169552
6.54,2.060382843,3.283005953,10.54803944
6.550001563,2.172259092,3.428151846,10.27795315
6.560001563,2.426810741,3.817180872,10.18187904
6.57,3.233034134,4.299641132,10.47950649
6.58,4.467226028,4.627618313,10.72588921
6.59,5.625588417,4.646063328,10.72044086
6.6,6.48944521,4.393790722,10.46021938
6.61,6.954351425,4.057405472,10.09702969
6.620001563,6.953288078,3.820255041,10.01480198
6.630001563,6.733615398,3.855114698,9.963776588
6.64,6.62831831,4.106515408,9.91190052
6.65,6.767593861,4.204457283,10.13840008
6.66,7.165845394,4.101372719,10.52028561
6.67,7.773397923,3.873636246,10.50440598
6.68,8.31018734,3.516976833,10.15202808
6.690001563,8.562566757,3.169089794,9.828648567
6.700001563,8.608859062,3.028224468,9.493162155
6.710001563,8.403753281,3.062509537,9.077471733
6.72,8.100982666,3.179202795,8.7833395
6.73,7.834891796,3.283293247,8.634364128
6.74,7.617123604,3.194573641,8.549053192
6.75,7.501627445,2.972286463,8.567142487
6.76,7.502996922,2.700803041,8.602433205
6.770001563,7.522150517,2.533965588,8.486152649
6.780001563,7.516624451,2.44954586,8.309909821
6.79,7.490613937,2.407331467,8.04627037
6.8,7.469593048,2.295761585,7.76087141
6.81,7.455533981,2.154446363,7.432310581
6.82,7.3225317,2.18977499,7.115614891
6.83,7.213307858,2.393368483,7.075612545
6.840001563,7.067913055,2.606433153,7.087526321
6.850001563,6.991346359,2.693668365,7.067501068
6.86,7.052580357,2.676765203,7.279723167
6.870007813,7.125258923,2.560646534,7.535471916
6.88,7.095034599,2.444566011,7.630770683
6.89,6.927976608,2.368391991,7.646332741
6.9,6.666740417,2.382795572,7.518865585
6.91004375,6.460733891,2.371801376,7.423615932
6.920001563,6.25264883,2.370805502,7.299441814
6.93,6.057301521,2.366170406,7.168584347
6.94,5.83717823,2.335811853,7.104285717
6.95,5.656531334,2.208066702,7.099372864
6.96,5.515627384,2.125390291,7.396100521
6.97,5.383247375,2.019432545,7.842216969
6.980001563,5.371496677,2.006867647,8.301577568
6.990001563,5.042255402,1.822035313,8.857991219
7,4.945807457,1.611939311,9.051098824
7.01,4.914989471,1.481369138,9.040007591
7.02,4.836076736,1.45344317,8.911745071
7.03,4.746140957,1.57945478,8.772240639
7.04,4.531122208,1.769429922,8.73692131
7.050001563,4.239824772,1.930348992,8.739286423
7.060001563,3.923799515,2.010277033,8.850175858
7.07,3.765399218,1.986890435,9.088791847
7.08,3.673480988,1.782837391,9.362630844
7.09,3.538390636,1.550369978,9.41524601
7.1,3.353749752,1.343913198,9.402231216
7.11,2.973722935,1.230667472,9.549139977
7.120001563,2.468757153,1.134717464,9.523032188
7.130001563,1.89707911,1.073071599,9.626913071
7.140001563,1.183683753,0.995231271,9.955981255
7.15,0.544585109,0.916241825,10.2365427
7.16,0.240626842,0.772848248,10.39777851
7.17,0.135032967,0.609764814,10.55622673
7.18,0.311064243,0.521332622,10.58065701
7.190001563,0.594298303,0.537862182,10.5195961
7.200001563,0.758291543,0.634319782,10.35292053
7.210001563,0.730806112,0.835576355,10.01347065
7.22,0.629311085,1.032944798,9.815221786
7.23,0.419454545,1.236547709,9.864485741
7.24,-0.005027823,1.374673963,10.11094284
7.25,-0.206945211,1.463067889,10.22389221
7.26,-0.287897944,1.449315548,10.49526119
7.270001563,-0.185205862,1.415183783,10.3588686
7.280001563,0.030368052,1.472443581,10.24154377
7.29,0.025158271,1.545629501,10.33744431
7.3,-0.236709923,1.642872453,10.41524696
7.31,-0.669045269,1.62866044,10.42026424
7.32,-1.079421043,1.634894967,10.59767437
7.33,-1.341518998,1.566487789,10.81335449
7.340001563,-1.319157243,1.427442193,11.04242134
7.350001563,-1.22991097,1.325133085,11.38962841
7.36,-1.148527265,1.310461402,11.45129395
7.37,-1.137370229,1.36992383,11.37166309
7.38,-1.27629137,1.51091361,11.30804539
7.390001563,-1.396882534,1.703436136,11.14929008
7.4,-1.50014925,1.945844293,10.98808289
7.410001563,-1.549230337,2.047320127,10.96360588
7.420001563,-1.498502016,2.082016945,10.85296345
7.43,-1.355520368,2.043997049,10.69217873
7.44,-1.145184875,2.048641682,10.5235424
7.45,-0.931267798,2.160039186,10.2888813
7.46,-0.738984704,2.330716848,10.04748726
7.47,-0.702573657,2.550159931,9.899831772
7.480003125,-0.746416271,2.693553448,9.540950775
7.490001563,-0.71795404,2.825560093,9.09471035
7.5,-0.572137594,2.947587729,8.894363403
7.51,-0.463613212,3.126195192,8.725313187
7.52,-0.410212934,3.304208994,8.462794304
7.53,-0.204234973,3.427941322,8.461894989
7.54,-0.168810368,3.336827517,8.309412003
7.550001563,-0.284737617,3.172183037,8.021906853
7.560001563,-0.385571808,3.094323635,7.951038361
7.57,-0.486233622,3.157923222,8.137489319
7.58,-0.619389534,3.168907881,8.252410889
7.59,-0.718384981,3.064951658,8.222224236
7.6,-0.651558042,3.055527925,8.276928902
7.61,-0.45260945,3.099322796,8.421757698
7.620001563,-0.175868466,3.09928441,8.632006645
7.630001563,0.025388114,3.101065636,8.900473595
7.64,0.1350234,3.143701553,9.188850403
7.65,0.183156416,3.16070056,9.503878593
7.66,0.25895685,3.137084007,9.678320885
7.67,0.319645077,3.062107325,9.764933586
7.68,0.437746257,2.980196714,9.64790535
7.690001563,0.52644664,2.980101109,9.44822979
7.700001563,0.50706315,3.111197948,9.219994545
7.710001563,0.457455307,3.242955685,8.982728004
7.72,0.37096718,3.363422394,8.867194176
7.73,0.304743558,3.444806099,8.857463837
7.74,0.327057511,3.409046173,9.076236725
7.75,0.386970013,3.285964966,9.432082176
7.76,0.472184449,3.114377499,9.67042923
7.770001563,0.568460047,3.028167009,9.821895599
7.780001563,0.579741538,2.957193375,9.778982162
7.79,0.460452855,2.943900824,9.572469711
7.8,0.20713675,2.971328735,9.325263023
7.81,-0.000641646,3.124126673,9.04553318
7.82,-0.167144001,3.228351116,8.864358902
7.83,-0.247589171,3.267232895,8.775237083
7.840001563,-0.20800823,3.194937468,8.818036079
7.850001563,-0.180905879,3.097158432,8.894899368
7.86,-0.221415758,3.033338547,9.016352654
7.87,-0.378590316,3.08582902,9.163854599
7.88,-0.622157216,3.164684296,9.265406609
7.89,-0.801272213,3.198279858,9.297623634
7.9,-0.863435268,3.219300985,9.280470848
7.910001563,-0.766383946,3.233934402,9.272752762
7.920001563,-0.663701415,3.226971865,9.28796196
7.93,-0.538044155,3.237659693,9.293984413
7.94,-0.467175782,3.225420475,9.280664444
7.95,-0.442410141,3.205960512,9.269371986
7.96,-0.453739524,3.196929455,9.305380821
7.97,-0.498683453,3.191748381,9.413723946
7.980001563,-0.579234004,3.147934675,9.484764099
7.990001563,-0.61858505,3.213181257,9.456407547
8,-0.695783734,3.31895709,9.362861633
8.01,-0.745468199,3.347553492,9.240114212
8.02,-0.780327737,3.443187475,9.084741592
8.03,-0.765723109,3.465453625,8.995512962
8.04,-0.734588921,3.480632782,9.004534721
8.050001563,-0.677549481,3.438025713,9.205945015
8.060001563,-0.584721506,3.30557847,9.46416378
8.07,-0.631992638,3.213095188,9.487751961
8.08,-0.985539556,3.347409964,9.095285416
8.09,-1.112087488,3.467129469,8.671271324
8.1,-1.083060145,3.511000872,8.405611038
8.11,-1.006914973,3.237200022,8.821789742
8.120001563,-1.015189409,3.172930002,9.268663406
8.130001563,-1.166636944,3.283877373,9.729795456
8.140001563,-1.270286798,3.316917419,10.0094099
8.15,-1.446873546,3.317271709,10.18227291
8.16,-1.658291101,3.357992172,9.726799965
8.17,-1.537527561,3.180620193,9.121678352
8.18,-1.539011955,3.329194784,8.583816528
8.19,-1.553779364,3.480000734,8.355055809
