Time (s),Acceleration x (m/s^2),Acceleration y (m/s^2),Acceleration z (m/s^2),Gyroscope x (rad/s),Gyroscope y (rad/s),Gyroscope z (rad/s)
0,-0.466122359,0.02501462,9.553678513,0.011903145,0.084456481,0.036180675
0.002,-0.467922777,0.023118412,9.547693253,0.011693706,0.084229589,0.039549161
0.004,-0.474396706,0.016280571,9.537436485,0.013508848,0.081297435,0.043127086
0.006,-0.484663039,0.011798626,9.533385277,0.014241886,0.074735001,0.046792276
0.008,-0.4930619,0.003696647,9.54393959,0.014224433,0.069533914,0.050492376
0.01,-0.508921087,-0.024478318,9.537282944,0.015481071,0.06553711,0.053581607
0.012,-0.510156512,-0.039715018,9.529909134,0.016318828,0.062325709,0.055780724
0.014,-0.500215769,-0.049310979,9.509817123,0.015393804,0.060702551,0.057316612
0.016,-0.4856686,-0.078922465,9.49651432,0.014381513,0.059411008,0.058887407
0.018,-0.477748603,-0.090165637,9.495575905,0.013334315,0.056984998,0.061103977
0.02,-0.472002506,-0.103726395,9.474986076,0.011013027,0.053476889,0.063268185
0.022,-0.471906751,-0.109932169,9.469230652,0.007871435,0.050789081,0.06478662
0.024,-0.475660831,-0.128137678,9.467104912,0.004066617,0.051260319,0.066339962
0.026,-0.492152095,-0.152999073,9.4626894,0.000610865,0.053983033,0.067299895
0.028,-0.501412869,-0.180599421,9.461587906,-0.002356194,0.057944931,0.067683868
0.03,-0.496174336,-0.208391309,9.463388443,-0.005462881,0.062378068,0.06815511
0.032,-0.493512005,-0.225620002,9.47963047,-0.007661995,0.066409774,0.068975411
0.034,-0.495293319,-0.234028429,9.502836227,-0.010140363,0.071191981,0.070266955
0.036,-0.49088797,-0.240282089,9.507575989,-0.013683381,0.077562429,0.070773102
0.038,-0.482067704,-0.253316104,9.516970634,-0.017645279,0.085521132,0.071314156
0.04,-0.457924604,-0.280495077,9.547041893,-0.022410028,0.094771378,0.072151914
0.042,-0.457436174,-0.28456524,9.556292534,-0.028134707,0.104841925,0.073129296
0.044,-0.458690733,-0.275151253,9.573866844,-0.034574971,0.114929929,0.074787356
0.046,-0.433130235,-0.272565484,9.595941544,-0.041294489,0.124721229,0.076724671
0.048,-0.401890695,-0.249322593,9.630561829,-0.046565384,0.135332823,0.07878416
0.05,-0.396297842,-0.22800462,9.650069237,-0.051539574,0.146921814,0.080564395
0.052,-0.382957339,-0.209779948,9.663908005,-0.058625609,0.158894777,0.081925757
0.054,-0.367500395,-0.191852167,9.674806595,-0.065921083,0.171024814,0.084683374
0.056,-0.357885271,-0.179900318,9.687677383,-0.072675511,0.183224663,0.088331111
0.058,-0.33921051,-0.148852304,9.70868969,-0.079848811,0.195459425,0.090757124
0.06,-0.321598768,-0.131077752,9.740167618,-0.08782497,0.207380027,0.093340211
0.062,-0.30952239,-0.1315566,9.749639511,-0.095801122,0.218532682,0.097529002
0.064,-0.290732682,-0.121098727,9.764598846,-0.103463121,0.229074463,0.102712624
0.066,-0.27562052,-0.11971008,9.77338028,-0.111002937,0.239686072,0.107669361
0.068,-0.264051735,-0.129085779,9.780332565,-0.117862083,0.250000954,0.11252138
0.07,-0.26281631,-0.158189699,9.776578903,-0.124441974,0.25987953,0.117338486
0.072,-0.278981954,-0.175475836,9.773993492,-0.130899698,0.269269407,0.122138143
0.074,-0.286336958,-0.181059107,9.763822556,-0.137636662,0.277821511,0.127566114
0.076,-0.309177637,-0.210230053,9.744898796,-0.144809961,0.285727859,0.133884206
0.078,-0.353968352,-0.254676014,9.719520569,-0.151197866,0.293040782,0.139923051
0.08,-0.403049499,-0.303575188,9.700913429,-0.156311691,0.299498498,0.145228848
0.082,-0.44464156,-0.319817483,9.685474396,-0.161565125,0.305589706,0.151162967
0.084,-0.472232342,-0.340963036,9.663553238,-0.16622515,0.311227113,0.157690495
0.086,-0.492276609,-0.354485512,9.658276558,-0.169698358,0.316044211,0.164444923
0.088,-0.535448849,-0.375113964,9.648077011,-0.17236872,0.32086134,0.171932384
0.09,-0.566879928,-0.382076293,9.637456894,-0.173782438,0.325957686,0.180030718
0.092,-0.600063562,-0.382717937,9.630427361,-0.174655095,0.330879509,0.188687548
0.094,-0.612245262,-0.372547358,9.631097794,-0.174393296,0.33541736,0.197902888
0.096,-0.630556107,-0.362558752,9.624911308,-0.173014492,0.33883822,0.206699342
0.098,-0.641895056,-0.345349252,9.601036072,-0.171199352,0.341805279,0.215007111
0.1,-0.650217295,-0.339287102,9.586479187,-0.169506371,0.344597817,0.223454505
0.102,-0.656135738,-0.343462586,9.570026398,-0.167883217,0.347617239,0.23256512
0.104,-0.671247959,-0.368314415,9.557623863,-0.165631741,0.351701289,0.241954997
0.106,-0.698139668,-0.388722599,9.553361893,-0.16282177,0.355872631,0.250507116
0.108,-0.706730068,-0.402273774,9.554186821,-0.159156576,0.360427946,0.259355933
0.11,-0.726237953,-0.441644013,9.551887512,-0.156084791,0.365437031,0.268326908
0.112,-0.736456394,-0.476714283,9.560564041,-0.154199839,0.370934814,0.276407778
0.114,-0.734043062,-0.515931308,9.573435783,-0.152175263,0.376345336,0.284418851
0.116,-0.725261152,-0.547937036,9.597981453,-0.149452537,0.380743563,0.29241246
0.118,-0.721334636,-0.578467846,9.624192238,-0.146450579,0.385071993,0.300091922
0.12,-0.717293263,-0.583888292,9.648431778,-0.143343896,0.38934806,0.307631731
0.122,-0.690822959,-0.611383379,9.681700706,-0.141127318,0.393292487,0.315119207
0.124,-0.684387326,-0.628142774,9.694324493,-0.139905587,0.39742893,0.32164672
0.126,-0.658328831,-0.644356251,9.71191597,-0.13847442,0.401006848,0.32745868
0.128,-0.609678626,-0.644528687,9.721216202,-0.136938527,0.40435788,0.332973927
0.13,-0.573928475,-0.659363151,9.726243019,-0.135996059,0.408564121,0.338698596
0.132,-0.538657129,-0.667522609,9.733148575,-0.135926247,0.411862791,0.34576717
0.134,-0.501738489,-0.669275165,9.730351448,-0.136537105,0.413189232,0.352748483
0.136,-0.464877337,-0.678085804,9.740885735,-0.137095615,0.414690226,0.359049141
0.138,-0.435620219,-0.682155967,9.747810364,-0.137008339,0.416871876,0.366047889
0.14,-0.403739005,-0.676706731,9.760796547,-0.137287602,0.418076158,0.372994304
0.142,-0.360202849,-0.668930352,9.780506134,-0.138352245,0.41825071,0.379294962
0.144,-0.344343662,-0.657486081,9.802839279,-0.139399454,0.418320507,0.385647953
0.146,-0.322010547,-0.650360942,9.810595512,-0.140149936,0.418355405,0.392018408
0.148,-0.324127019,-0.656547546,9.815000534,-0.142034888,0.418355405,0.398406297
0.15,-0.352359474,-0.676697135,9.854687691,-0.144705251,0.417744547,0.405090928
0.152,-0.344324529,-0.683908522,9.880458832,-0.146729827,0.417168587,0.411304295
0.154,-0.340551227,-0.70204699,9.892419815,-0.148178458,0.416610092,0.416976601
0.156,-0.342188865,-0.715502381,9.923716545,-0.149103478,0.416400641,0.422771096
0.158,-0.326933056,-0.723872483,9.956537247,-0.150726631,0.417255849,0.428583056
0.16,-0.319922835,-0.74119699,9.989720345,-0.152332336,0.417290777,0.434429914
0.162,-0.299935997,-0.78015542,10.02550888,-0.153309718,0.416976601,0.440276742
0.164,-0.269318968,-0.79856199,10.04850292,-0.154339463,0.416226119,0.445826888
0.166,-0.269002944,-0.80462414,10.06099129,-0.155700818,0.414655328,0.45123741
0.168,-0.264971107,-0.837127805,10.08912754,-0.157201812,0.412752926,0.456909746
0.17,-0.253632158,-0.882837951,10.12143898,-0.157498509,0.410396725,0.462372631
0.172,-0.273331642,-0.915935338,10.12835407,-0.1566782,0.407866001,0.467748225
0.174,-0.280581296,-0.963005364,10.14024925,-0.156346589,0.405893773,0.473734707
0.176,-0.274174422,-1.009299636,10.14604282,-0.156206965,0.404130995,0.479633927
0.178,-0.273302913,-1.059194803,10.14561176,-0.155508831,0.402158767,0.485201538
0.18,-0.287208438,-1.111359715,10.1509552,-0.1542871,0.401670069,0.491571993
0.182,-0.297627986,-1.160919666,10.16306019,-0.152210161,0.402106404,0.497628272
0.184,-0.30533734,-1.192226171,10.16820335,-0.150098309,0.402595103,0.503248215
0.186,-0.318160683,-1.218667865,10.14936638,-0.147672311,0.403747022,0.509321988
0.188,-0.345674843,-1.265565395,10.12024307,-0.144460902,0.405474901,0.515273571
0.19,-0.38901946,-1.313267469,10.10486221,-0.141895264,0.408075422,0.520858586
0.192,-0.428581268,-1.381617188,10.08412933,-0.139277279,0.411339194,0.526600719
0.194,-0.452619046,-1.403050065,10.07168865,-0.135681897,0.413608134,0.532726824
0.196,-0.483896881,-1.441606283,10.04843521,-0.131702542,0.416121393,0.539324164
0.198,-0.480334312,-1.482441783,10.00029278,-0.127548665,0.418721944,0.54578191
0.2,-0.610722542,-1.557045221,9.996405602,-0.123656578,0.420414895,0.551890552
0.202,-0.675701201,-1.615616918,10.03912735,-0.119537599,0.422038078,0.559116244
0.204,-0.707065225,-1.67425561,10.02371788,-0.115017198,0.423661232,0.566795647
0.206,-0.752210259,-1.729245782,10.01756096,-0.110339716,0.425895244,0.574021339
0.208,-0.783124209,-1.775760293,10.0295887,-0.106238194,0.428373605,0.581054986
0.21,-0.786859214,-1.810275078,10.0162096,-0.102974422,0.431288302,0.587408006
0.212,-0.712619722,-1.818396211,9.973296165,-0.098820545,0.434988409,0.593446851
0.214,-0.659363151,-1.853370786,9.943818092,-0.093654364,0.439020127,0.600026727
0.216,-0.603932619,-1.878787518,9.909285545,-0.088383473,0.443505615,0.606484473
0.218,-0.683008313,-1.897040844,9.946643829,-0.083409287,0.448497266,0.612261474
0.22,-0.699643195,-1.930425644,10.05620193,-0.078225657,0.453680873,0.619050801
0.222,-0.685594022,-1.980895519,10.08415699,-0.072012283,0.458620161,0.626852453
0.224,-0.70778352,-2.017670393,10.13187885,-0.066322513,0.462843865,0.634758771
0.226,-0.704450727,-2.039735317,10.20327377,-0.061173789,0.466456682,0.642089188
0.228,-0.674044371,-2.065085173,10.23222446,-0.055274576,0.470139325,0.649489343
0.23,-0.63579464,-2.112356186,10.23997211,-0.048781954,0.474171042,0.657866955
0.232,-0.586339951,-2.158717632,10.26480484,-0.041713368,0.478953242,0.665703476
0.234,-0.529673994,-2.199543476,10.28351784,-0.035046212,0.484381229,0.672981501
0.236,-0.480410963,-2.242945671,10.3042326,-0.028239427,0.48879692,0.680050075
0.238,-0.434308201,-2.283895969,10.32751369,-0.02008874,0.491537064,0.687677205
0.24,-0.371522635,-2.31556654,10.34328651,-0.011414453,0.493614018,0.696142018
0.242,-0.262663096,-2.376532555,10.37743759,-0.003141593,0.495708406,0.703996003
0.244,-0.233674094,-2.399852037,10.38615227,0.004625123,0.497523546,0.711308956
0.246,-0.179306552,-2.431915283,10.42088795,0.013159783,0.499513239,0.718063355
0.248,-0.125954166,-2.483333111,10.45925236,0.021991149,0.501904309,0.723665893
0.25,-0.071634516,-2.538188934,10.49603653,0.031276301,0.504766643,0.72909385
0.252,-0.034304123,-2.598618746,10.53040791,0.041050144,0.507838428,0.734766185
0.254,-0.007086837,-2.665368795,10.56831264,0.050387654,0.510334253,0.740560651
0.256,0.006952762,-2.716049671,10.6103363,0.059568089,0.512620628,0.746075869
0.258,0.018128894,-2.766193628,10.63926792,0.068975411,0.514819741,0.751468957
0.26,0.038086958,-2.813991547,10.66247177,0.07754498,0.516024053,0.756198824
0.262,0.064758368,-2.856895447,10.68349361,0.086707957,0.516198576,0.760963559
0.264,0.09475293,-2.89655304,10.69796371,0.09738937,0.515954256,0.765745759
0.266,0.107442193,-2.929736853,10.69686222,0.107407562,0.514592886,0.770527959
0.268,0.121826559,-2.957126379,10.68658638,0.115907319,0.512777746,0.775624335
0.27,0.147071019,-2.990108967,10.66543198,0.123796202,0.510770619,0.77960366
0.272,0.185493171,-3.036652088,10.63574314,0.132679924,0.507751167,0.784682572
0.274,0.194801837,-3.045731068,10.62626171,0.141354218,0.503998697,0.79086107
0.276,0.204560593,-3.079316854,10.60377502,0.148981303,0.498989642,0.796533346
0.278,0.210412011,-3.126157045,10.58358765,0.154618725,0.493806005,0.801367939
0.28,0.20324856,-3.160451651,10.55608273,0.159435824,0.488849282,0.806813359
0.282,0.189448401,-3.195024014,10.53023529,0.16612044,0.481152356,0.814702213
0.284,0.200749025,-3.232191324,10.49954224,0.172962129,0.472024292,0.823603392
0.286,0.19290562,-3.265327215,10.4705143,0.17921041,0.463245302,0.831631959
0.288,0.176337734,-3.300952911,10.43681335,0.184271857,0.455583304,0.838386357
0.29,0.174173385,-3.337095737,10.40339088,0.186977118,0.448357642,0.845542193
0.292,0.170131967,-3.411392689,10.35810184,0.190275788,0.438461602,0.854460836
0.294,0.179383159,-3.44610858,10.34314251,0.193836272,0.427186787,0.863449276
0.296,0.196985334,-3.514640093,10.31080151,0.195913211,0.415650159,0.871844292
0.298,0.21566011,-3.568490505,10.28461933,0.197710902,0.404322982,0.879994988
0.3,0.202626079,-3.626650572,10.27613354,0.199700579,0.39561379,0.886784315
0.302,0.192120314,-3.705668688,10.27479267,0.201463357,0.386066824,0.89303261
0.304,0.18960163,-3.778548241,10.26770592,0.20343557,0.373657525,0.899979055
0.306,0.176586747,-3.827552795,10.25562,0.205180913,0.362923771,0.905651331
0.308,0.162393913,-3.871596336,10.26654816,0.206210643,0.352870673,0.91080004
0.31,0.146754995,-3.926519632,10.27168083,0.207589462,0.341840178,0.917013466
0.312,0.125580668,-3.979718685,10.27067471,0.210347086,0.328191698,0.923628211
0.314,0.132571727,-4.013869762,10.26217079,0.214308977,0.313478589,0.930120885
0.316,0.153544933,-4.039975643,10.25484467,0.218131244,0.300877303,0.936229527
0.318,0.166186318,-4.071828365,10.23586369,0.220644519,0.290998757,0.941552758
0.32,0.175274715,-4.086892605,10.2157135,0.222285137,0.28160888,0.945619404
0.322,0.172114357,-4.093941212,10.19732571,0.225479081,0.269269407,0.94980818
0.324,0.166511938,-4.083818436,10.1712389,0.229318813,0.257628053,0.954031885
0.326,0.158486575,-4.076616764,10.14270973,0.232442945,0.249093384,0.957016408
0.328,0.140798211,-4.075774193,10.1211338,0.236561924,0.242146984,0.959808886
0.33,0.120236807,-4.068878651,10.11056995,0.241710648,0.236160502,0.962514162
0.332,0.08995495,-4.040924072,10.10149097,0.247906566,0.229632974,0.96551615
0.334,0.067277066,-4.025476456,10.08088207,0.255167127,0.222546935,0.968640268
0.336,0.049320556,-4.016675472,10.05135632,0.261589944,0.217764735,0.970211089
0.338,0.023424869,-4.01257658,10.02004147,0.266738683,0.214570776,0.971485138
0.34,0.0082169,-4.004225731,9.98110199,0.271992117,0.211673528,0.972951233
0.342,-0.02602976,-3.999791861,9.923640251,0.277594626,0.208933368,0.973876238
0.344,-0.059452817,-3.996822834,9.877260208,0.284610838,0.20685643,0.97392863
0.346,-0.095183887,-4.001400471,9.8346138,0.291260541,0.20570451,0.973631918
0.348,-0.134602025,-4.001783848,9.801555634,0.295850754,0.2049191,0.973509729
0.35,-0.179794967,-3.999025583,9.773389816,0.300877303,0.205547422,0.973788977
0.352,-0.213965014,-4.008841991,9.73015976,0.306095839,0.207065865,0.97326541
0.354,-0.234794572,-4.021751404,9.683454514,0.311995059,0.209264979,0.971467733
0.356,-0.2626535,-4.014894485,9.648728371,0.31756267,0.212040052,0.969792187
0.358,-0.288980126,-4.003651142,9.595663071,0.321716547,0.215076923,0.968169034
0.36,-0.308899909,-3.992072821,9.538058281,0.325608611,0.218201056,0.966860056
0.362,-0.327392727,-3.985675573,9.481909752,0.329099268,0.221045956,0.965708137
0.364,-0.343309343,-3.977075338,9.424401283,0.332397968,0.224100277,0.96460855
0.366,-0.340196908,-3.960478783,9.361769676,0.33438763,0.226613551,0.96415478
0.368,-0.329394251,-3.954215527,9.290411949,0.334876329,0.228254154,0.964294434
0.37,-0.34021607,-3.936795473,9.225385666,0.335382462,0.229249001,0.964660943
0.372,-0.353843868,-3.91524744,9.165501595,0.335591912,0.229964584,0.964818001
0.374,-0.351229399,-3.89901495,9.117081642,0.335365027,0.229318813,0.965812862
0.376,-0.346134514,-3.886938572,9.076341629,0.33496359,0.22778292,0.967488349
0.378,-0.352713794,-3.87742877,9.041367531,0.334160745,0.225897968,0.969111502
0.38,-0.367509961,-3.86372447,9.021294594,0.333200812,0.223559216,0.971363008
0.382,-0.382708341,-3.852854729,8.999938011,0.332816839,0.220696881,0.973527193
0.384,-0.392313898,-3.845767736,8.98154068,0.332973927,0.214815125,0.976005554
0.386,-0.39845264,-3.84942627,8.965768814,0.332729578,0.208619207,0.978588641
0.388,-0.401440591,-3.855000019,8.941375732,0.331350744,0.203261048,0.981206656
0.39,-0.398002505,-3.863082647,8.91894722,0.329221457,0.195092902,0.984173715
0.392,-0.393740833,-3.879487753,8.893741608,0.328034639,0.184812918,0.986948788
0.394,-0.387420148,-3.876241207,8.87439537,0.327563405,0.170221955,0.990299821
0.396,-0.379548013,-3.883510113,8.854696274,0.32609731,0.152908295,0.994191885
0.398,-0.369300813,-3.893661261,8.828514099,0.323933095,0.139242366,0.997979283
0.4,-0.352215797,-3.891612053,8.806324005,0.321472198,0.126100034,1.001731753
0.402,-0.351152778,-3.887235403,8.788319588,0.318574935,0.110968031,1.0054667
0.404,-0.351459235,-3.877275705,8.769779205,0.314229071,0.092799157,1.010772467
0.406,-0.359455884,-3.869125843,8.750873566,0.309307247,0.075956732,1.016409993
0.408,-0.366571456,-3.855287075,8.737132072,0.304472685,0.060877085,1.020598769
0.41,-0.395072013,-3.850546598,8.719931602,0.298398942,0.043074727,1.025450706
0.412,-0.427163869,-3.843613148,8.698604584,0.291190743,0.024766222,1.030599475
0.414,-0.465068877,-3.835817575,8.674633026,0.283197135,0.006911504,1.035835505
0.416,-0.496806413,-3.829075336,8.65607357,0.275849283,-0.009826204,1.041437984
0.418,-0.522175431,-3.808063984,8.633586884,0.267803311,-0.026424285,1.046883345
0.42,-0.541549265,-3.802040339,8.607461929,0.258221448,-0.042952552,1.052573204
0.422,-0.545303404,-3.780636072,8.575292587,0.248639599,-0.05948082,1.057721853
0.424,-0.532068253,-3.748285532,8.534936905,0.237469494,-0.078504913,1.062661171
0.426,-0.518459618,-3.715925455,8.497567177,0.226927713,-0.095102988,1.067513227
0.428,-0.499133617,-3.690489531,8.464881897,0.216961876,-0.108786374,1.072644472
0.43,-0.47555548,-3.680108309,8.434082985,0.207222939,-0.121631995,1.077583671
0.432,-0.470221221,-3.658339977,8.404835701,0.198513746,-0.132226139,1.081475854
0.434,-0.460586935,-3.628384113,8.370895386,0.188355938,-0.141895264,1.086223125
0.436,-0.470996946,-3.597364664,8.332176208,0.177273095,-0.149941236,1.091302037
0.438,-0.48275727,-3.573403597,8.289971352,0.16612044,-0.1566782,1.095595479
0.44,-0.504927576,-3.549126148,8.251578331,0.156224415,-0.162909031,1.099539995
0.442,-0.529779375,-3.523067951,8.205513954,0.147462875,-0.167953029,1.103676438
0.444,-0.556450784,-3.497794628,8.171410561,0.139783412,-0.171269164,1.107254386
0.446,-0.578333795,-3.470979452,8.130239487,0.133517683,-0.173572987,1.109977007
0.448,-0.596424401,-3.427615643,8.08204937,0.127478853,-0.17420131,1.112333179
0.45,-0.605905414,-3.392689228,8.04904747,0.122504659,-0.174131498,1.113624811
0.452,-0.623344779,-3.342247963,8.026024818,0.119537599,-0.173468277,1.113816738
0.454,-0.657342494,-3.295790911,8.000531197,0.117373392,-0.171635673,1.113903999
0.456,-0.676649272,-3.236749887,7.970948696,0.116186567,-0.168982774,1.112996459
0.458,-0.685756862,-3.199342966,7.932708263,0.116326191,-0.166015714,1.111670017
0.46,-0.685134351,-3.171120167,7.902081966,0.116692714,-0.16259487,1.110832214
0.462,-0.700629652,-3.134977341,7.845990658,0.117163949,-0.158999488,1.108894944
0.464,-0.720194995,-3.101774454,7.780303001,0.119258344,-0.155945167,1.107167006
0.466,-0.741426826,-3.064951658,7.716655731,0.121998511,-0.152821034,1.105840564
0.468,-0.745353282,-3.035895824,7.655258656,0.123429686,-0.149644524,1.103397131
0.47,-0.75973767,-3.033807755,7.591180325,0.12527974,-0.14678219,1.101145625
0.472,-0.792040229,-3.034535646,7.535146713,0.128229335,-0.143082097,1.099278212
0.474,-0.820607841,-3.019950151,7.481018543,0.131021872,-0.138107896,1.096625328
0.476,-0.853437126,-2.997138262,7.418079376,0.133727133,-0.134198368,1.093972325
0.478,-0.886955917,-2.96650219,7.353962898,0.136729091,-0.131021872,1.091302037
0.48,-0.922974289,-2.950710058,7.288428783,0.140149936,-0.128142074,1.088334918
0.482,-0.949004114,-2.918991566,7.218326569,0.14439109,-0.12571606,1.086484909
0.484,-0.975694656,-2.891803026,7.144719124,0.149906322,-0.124092907,1.085106134
0.486,-1.022017598,-2.876345873,7.066955566,0.154356912,-0.123761296,1.083901763
0.488,-1.059453368,-2.862229824,6.983551502,0.157428697,-0.123621672,1.083430529
0.49,-1.086594105,-2.8435359,6.900290489,0.160901904,-0.124180175,1.083221197
0.492,-1.119155288,-2.834983826,6.799111366,0.163258091,-0.124424525,1.083465457
0.494,-1.160670638,-2.811089516,6.711301804,0.166102991,-0.125140101,1.08418107
0.496,-1.19918859,-2.804711342,6.619239807,0.169785634,-0.127967536,1.084791899
0.498,-1.248872995,-2.797576904,6.5359025,0.172874868,-0.131964341,1.084739566
0.5,-1.299457788,-2.78027153,6.457353592,0.17601645,-0.137689024,1.084390521
0.502,-1.324529767,-2.748476505,6.380547523,0.178250477,-0.144757614,1.08487916
0.504,-1.346326709,-2.706491709,6.297708035,0.180414692,-0.152053088,1.086031079
0.506,-1.36285615,-2.669075251,6.222663879,0.183189765,-0.159749985,1.087444782
0.508,-1.394660711,-2.619017363,6.138196945,0.185580865,-0.168878064,1.089277387
0.51,-1.434672713,-2.56179595,6.061122417,0.188774809,-0.17954202,1.091930389
0.512,-1.4758147,-2.496826649,6.002349377,0.193225399,-0.191462621,1.094583273
0.514,-1.506096601,-2.430200815,5.943644047,0.198182136,-0.204831839,1.097236156
0.516,-1.540477276,-2.38573575,5.895328999,0.203365758,-0.219108626,1.100203156
0.518,-1.568125486,-2.350713491,5.862509251,0.207990885,-0.233455241,1.102681518
0.52,-1.586886525,-2.306075811,5.831585884,0.211778253,-0.247487694,1.10557878
0.522,-1.597890258,-2.261706591,5.809817791,0.215216547,-0.261415422,1.108982205
0.524,-1.607936263,-2.226195812,5.79350853,0.217869446,-0.274976611,1.112245917
0.526,-1.615214586,-2.198107004,5.791267395,0.219579876,-0.289009064,1.11547482
0.528,-1.618461132,-2.167911291,5.778262138,0.219963849,-0.304193437,1.118372083
0.53,-1.612073541,-2.117642641,5.771769047,0.219492599,-0.319534868,1.121757984
0.532,-1.586311936,-2.068034887,5.763695717,0.218358144,-0.334928691,1.125650048
0.534,-1.548215389,-2.032380342,5.749158382,0.21504201,-0.352242351,1.129769087
0.536,-1.524225473,-1.998918891,5.73630619,0.211498991,-0.367182374,1.133975267
0.538,-1.495514154,-1.959443331,5.729410648,0.208462119,-0.378631741,1.137256503
0.54,-1.449401855,-1.918071628,5.724516869,0.204709664,-0.390866488,1.139857054
0.542,-1.398309588,-1.889369845,5.711961746,0.200660497,-0.403101236,1.142806649
0.544,-1.346700191,-1.861693025,5.70463562,0.195843399,-0.414079368,1.145599246
0.546,-1.28621304,-1.831966519,5.698439598,0.190415427,-0.423923016,1.146402121
0.548,-1.236605167,-1.78740561,5.686640739,0.185057253,-0.432963818,1.146419525
0.55,-1.19108665,-1.746455193,5.675665855,0.179088235,-0.440765441,1.146751165
0.552,-1.145165801,-1.702861547,5.672553062,0.173485726,-0.448026031,1.146559119
0.554,-1.089285135,-1.653799534,5.662919044,0.168686077,-0.45478043,1.143958569
0.556,-1.037216067,-1.590966225,5.641218185,0.163589716,-0.461325437,1.140066504
0.558,-0.994398117,-1.522769809,5.620120049,0.1592962,-0.467765689,1.13753581
0.56,-0.9550758,-1.462445378,5.606272697,0.156294227,-0.473228574,1.134289503
0.562,-0.910141408,-1.407043576,5.60053587,0.154426739,-0.478935808,1.129175663
0.564,-0.856166482,-1.347370505,5.600047588,0.153362081,-0.485026985,1.123625517
0.566,-0.814555287,-1.305778384,5.595795631,0.152611584,-0.490681857,1.117272496
0.568,-0.781668544,-1.262108207,5.604825974,0.151669115,-0.495813131,1.109942079
0.57,-0.762629867,-1.209751844,5.61146307,0.150970981,-0.500752389,1.103170276
0.572,-0.744414806,-1.172670364,5.596360207,0.150691733,-0.505272806,1.096625328
0.574,-0.720338702,-1.129957914,5.574075222,0.150255397,-0.508693636,1.088596702
0.576,-0.717666745,-1.080618143,5.56652832,0.150709182,-0.511364043,1.079329014
0.578,-0.713156045,-1.04300046,5.539627552,0.150587007,-0.514016926,1.069258451
0.58,-0.704948723,-1.015122414,5.512285709,0.149260551,-0.51700145,1.05915308
0.582,-0.686599612,-0.994005501,5.456155777,0.149051115,-0.52042228,1.049675941
0.584,-0.681035459,-0.955746174,5.390257835,0.149592176,-0.524331808,1.040128946
0.586,-0.670127511,-0.925789893,5.320193768,0.150447384,-0.528136611,1.03025043
0.588,-0.671717227,-0.872887611,5.244996548,0.151738927,-0.532203257,1.020232201
0.59,-0.680681109,-0.830328286,5.166514874,0.153519154,-0.536706209,1.010161638
0.592,-0.687672198,-0.783162534,5.09798336,0.155840442,-0.54169786,1.000370383
0.594,-0.702870607,-0.740727723,5.034068108,0.1592962,-0.546567321,0.991347015
0.596,-0.741043747,-0.691081524,4.960144043,0.163554803,-0.551698566,0.982620359
0.598,-0.808359146,-0.628085315,4.889946461,0.167481795,-0.557580352,0.974015892
0.6,-0.874391198,-0.576150298,4.813916206,0.171932384,-0.564090431,0.965777934
0.602,-0.930846512,-0.51818186,4.74469471,0.17657496,-0.570199072,0.958639562
0.604,-0.992463648,-0.463440836,4.639474392,0.18067649,-0.57583648,0.95289743
0.606,-1.060775042,-0.400971323,4.569400787,0.18488273,-0.583515942,0.948342085
0.608,-1.143202662,-0.331118107,4.509363651,0.189734742,-0.592312396,0.944275498
0.61,-1.216292739,-0.265421212,4.439500809,0.194569305,-0.600951791,0.940104127
0.612,-1.284048676,-0.177563563,4.381561756,0.199683115,-0.610132217,0.935880423
0.614,-1.353911519,-0.085865647,4.326734543,0.205861583,-0.621459365,0.931307674
0.616,-1.418487906,0.011444285,4.270125866,0.211551353,-0.631425202,0.926926911
0.618,-1.477988601,0.102069609,4.216821194,0.216700077,-0.639279187,0.922615945
0.62,-1.507858634,0.192216098,4.182478905,0.222895995,-0.647517145,0.918654025
0.622,-1.541818023,0.289114237,4.147657871,0.229196638,-0.654358864,0.915145934
0.624,-1.588849783,0.382986099,4.107406139,0.233978838,-0.659978807,0.911829829
0.626,-1.618528247,0.477288902,4.097120762,0.238761038,-0.665738404,0.909525991
0.628,-1.624762654,0.555655897,4.094534874,0.24450317,-0.67186451,0.907326877
0.63,-1.625921488,0.608663499,4.105950832,0.248726875,-0.677519381,0.905180097
0.632,-1.620740533,0.642048299,4.121417046,0.252357155,-0.682650626,0.903347492
0.634,-1.614774227,0.677492082,4.150051594,0.255708188,-0.686961591,0.902300298
0.636,-1.612964153,0.715330005,4.176799774,0.258343637,-0.689335227,0.901863992
0.638,-1.585526586,0.752890229,4.215068817,0.262253165,-0.689055979,0.900101185
0.64,-1.550034881,0.774438024,4.258307934,0.266057998,-0.687345564,0.896872342
0.642,-1.489308357,0.800132632,4.3021698,0.267925501,-0.684762478,0.892404318
0.644,-1.420154333,0.821230352,4.347056389,0.269635916,-0.68118453,0.887412667
0.646,-1.347083211,0.839905083,4.392718315,0.27159068,-0.676262736,0.882543206
0.648,-1.258143425,0.859939814,4.441081524,0.27237609,-0.66889745,0.878668547
0.65,-1.154627681,0.878241062,4.49131155,0.271765202,-0.660205722,0.876469433
0.652,-1.062441349,0.911549211,4.536217213,0.269304305,-0.648459613,0.873991072
0.654,-0.966089129,0.951685607,4.576765537,0.266092897,-0.636102676,0.871407986
0.656,-0.853686154,0.972879112,4.62349081,0.262567341,-0.625403822,0.869400859
0.658,-0.732070267,0.985558748,4.661961079,0.258291274,-0.614722431,0.867323935
0.66,-0.616210103,0.992320001,4.707527161,0.25246188,-0.604390085,0.865212083
0.662,-0.508528471,0.992415786,4.75350523,0.246283412,-0.5932374,0.861843586
0.664,-0.402302504,0.993986309,4.796888828,0.240942702,-0.581438959,0.856363237
0.666,-0.321033716,0.983547628,4.83821249,0.234345362,-0.569378734,0.850656033
0.668,-0.244993866,0.980751216,4.878243446,0.227870181,-0.556568027,0.844861507
0.67,-0.162853614,0.963637471,4.924547195,0.222075686,-0.542518139,0.837129712
0.672,-0.09232042,0.954635263,4.967690945,0.215932131,-0.527647913,0.828944147
0.674,-0.044283155,0.964528084,5.013046265,0.209963113,-0.512446106,0.822137356
0.676,0.016510414,0.984505296,5.071139812,0.204046443,-0.496773064,0.816517353
0.678,0.064269952,0.989188373,5.106564045,0.198496297,-0.481885403,0.811717749
0.68,0.100997001,1.008092999,5.142678261,0.193714097,-0.467922777,0.806603909
0.682,0.13631627,1.053314686,5.175239086,0.189542756,-0.453419089,0.801367939
0.684,0.162547141,1.102079749,5.195149422,0.186593145,-0.440241844,0.796393752
0.686,0.184027925,1.138873935,5.204649925,0.185388878,-0.429839701,0.791838408
0.688,0.196420297,1.173474908,5.212665558,0.18490018,-0.419908762,0.787143469
0.69,0.205001131,1.204877138,5.219656944,0.183434099,-0.410833061,0.782082021
0.692,0.199963734,1.256189704,5.235343456,0.18284069,-0.403345585,0.777805984
0.694,0.178731948,1.308641911,5.252323151,0.183556274,-0.39491564,0.774175704
0.696,0.155105963,1.355644941,5.265711308,0.184463844,-0.386136651,0.770807207
0.698,0.118829019,1.389786243,5.26206255,0.186418623,-0.378771365,0.767543435
0.7,0.07110779,1.440198541,5.25863409,0.18910642,-0.372296184,0.764000416
0.702,0.02495716,1.487814426,5.245150089,0.19240509,-0.364930898,0.759392738
0.704,-0.022926876,1.529310703,5.221543312,0.195337251,-0.357827395,0.755326152
0.706,-0.058964401,1.565319419,5.192324162,0.197152391,-0.353045195,0.753336489
0.708,-0.081182592,1.618863344,5.170728683,0.199473679,-0.34951964,0.750648677
0.71,-0.100700125,1.684799671,5.160223007,0.202318564,-0.34712854,0.746390045
0.712,-0.130110502,1.746349812,5.152819633,0.205041274,-0.345854431,0.742131472
0.714,-0.154311076,1.805898428,5.152839184,0.208374858,-0.345016688,0.737558663
0.716,-0.17815733,1.866739869,5.161975384,0.211289555,-0.345610112,0.732217968
0.718,-0.205403358,1.919239998,5.167750359,0.213750467,-0.349327654,0.726894736
0.72,-0.232314184,1.947941661,5.168143272,0.216961876,-0.354319304,0.720943153
0.722,-0.244945988,1.964950085,5.154400349,0.220155835,-0.358874589,0.713473141
0.724,-0.286020905,2.007969141,5.162492752,0.22368139,-0.363883704,0.705374837
0.726,-0.303105921,2.041621923,5.152322292,0.226997525,-0.369398922,0.69734633
0.728,-0.334584892,2.071032524,5.147255898,0.22961551,-0.376380265,0.689335227
0.73,-0.349007577,2.103650808,5.136405468,0.232250959,-0.385525763,0.681341648
0.732,-0.36503914,2.148729086,5.120268345,0.234903857,-0.394304782,0.673365474
0.734,-0.364177257,2.197053432,5.088482857,0.237888381,-0.401024312,0.665057719
0.736,-0.378628641,2.261888504,5.048289299,0.240995064,-0.406609356,0.656627774
0.738,-0.355424047,2.326033831,4.999380589,0.2438225,-0.411723167,0.647831321
0.74,-0.32491231,2.427078962,4.969835758,0.24530603,-0.417273313,0.638877749
0.742,-0.293806851,2.520088911,4.951027393,0.2462136,-0.423329622,0.630186021
0.744,-0.256294489,2.625586987,4.94896841,0.246597573,-0.429263741,0.621599019
0.746,-0.223273665,2.71467042,4.938491344,0.246108875,-0.434831321,0.612750173
0.748,-0.161532,2.819383383,4.930398941,0.246231049,-0.439945132,0.604093373
0.75,-0.123579115,2.915084124,4.920266628,0.246911734,-0.444866985,0.595820487
0.752,-0.05449203,2.997320414,4.907902718,0.248447612,-0.448444903,0.587408006
0.754,0.016366763,3.066436052,4.91447258,0.250332564,-0.450836003,0.578629017
0.756,0.096974745,3.139784813,4.915573597,0.252374619,-0.452459157,0.569361329
0.758,0.189352632,3.209369898,4.904206276,0.254783154,-0.453104913,0.560233235
0.76,0.263505817,3.273754835,4.916205883,0.257331342,-0.453384191,0.551454246
0.762,0.352924466,3.343090773,4.911015034,0.25963518,-0.453488886,0.542849779
0.764,0.441691905,3.40236187,4.902367115,0.261834294,-0.453523815,0.534594357
0.766,0.514015913,3.445352077,4.941028595,0.263998509,-0.453541249,0.526827633
0.768,0.591128409,3.473392725,4.99562645,0.266145259,-0.453244537,0.520195365
0.77,0.657773376,3.487107038,5.057454109,0.267960399,-0.4537507,0.514645219
0.772,0.714860737,3.504259109,5.145685673,0.268693447,-0.455845088,0.509548903
0.774,0.768768609,3.495141745,5.228457451,0.268990129,-0.458585262,0.504627049
0.776,0.812467516,3.478018522,5.315424919,0.268798143,-0.461604685,0.500734985
0.778,0.845536232,3.460148096,5.398063183,0.266511768,-0.465042979,0.497890085
0.78,0.883910537,3.444930553,5.480653286,0.262427717,-0.468655795,0.495464057
0.782,0.930884779,3.436723471,5.539732456,0.258553088,-0.471378535,0.493858367
0.784,0.95828402,3.42892766,5.594818592,0.254451543,-0.47502625,0.491606891
0.786,1.004721999,3.420950174,5.630319595,0.24804619,-0.48059386,0.488500208
0.788,1.064605713,3.42098856,5.654290676,0.239441723,-0.486353457,0.48628363
0.79,1.108496189,3.450284243,5.677073956,0.231203765,-0.492793709,0.484747738
0.792,1.126989007,3.484454155,5.697060585,0.223122895,-0.500141561,0.4828628
0.794,1.145491481,3.510119915,5.73839426,0.214151904,-0.50755918,0.481780678
0.796,1.166014552,3.535393,5.781173229,0.205442712,-0.515622616,0.481326908
0.798,1.16697216,3.55613637,5.817871571,0.197484002,-0.524593592,0.481152356
0.8,1.176826835,3.565330267,5.861504078,0.190764487,-0.534245253,0.482025027
0.802,1.204513311,3.553972244,5.906581402,0.183940247,-0.545746982,0.483019859
0.804,1.233588457,3.549135923,5.955864429,0.176103726,-0.558941662,0.48310715
0.806,1.247216344,3.546962023,5.979509354,0.168808252,-0.572520375,0.482827872
0.808,1.253718853,3.53845787,6.031569004,0.162367985,-0.586256087,0.482391536
0.81,1.271685004,3.528852224,6.085227489,0.155962616,-0.599747479,0.480628759
0.812,1.270621896,3.529867411,6.098270893,0.149871424,-0.613116682,0.477714062
0.814,1.256122708,3.523824453,6.126206398,0.144565627,-0.625508547,0.474624842
0.816,1.249706268,3.529158592,6.152370453,0.139242366,-0.63624233,0.470854938
0.818,1.236969113,3.538630009,6.181436062,0.133604959,-0.646923721,0.467102468
0.82,1.203526855,3.575395584,6.223258018,0.127513751,-0.657884419,0.464309931
0.822,1.198278785,3.582855701,6.241013527,0.122522116,-0.668984711,0.460976362
0.824,1.195041895,3.605102777,6.273153305,0.117966801,-0.679177404,0.457398444
0.826,1.216359854,3.673098087,6.32177496,0.112311937,-0.689335227,0.454675734
0.828,1.24119246,3.729964972,6.352956772,0.106238194,-0.701046407,0.452005357
0.83,1.264780164,3.772237062,6.390890598,0.10091494,-0.712111771,0.449003398
0.832,1.289813995,3.79679203,6.4220438,0.096220002,-0.723264456,0.446210861
0.834,1.314196467,3.807508469,6.46839571,0.090530232,-0.735673726,0.443191469
0.836,1.338387489,3.822036505,6.513780117,0.084735736,-0.748938203,0.439735711
0.838,1.354735136,3.830770493,6.539656639,0.07827802,-0.762551785,0.436768651
0.84,1.393818021,3.871385813,6.631660938,0.070912726,-0.776933312,0.433976114
0.842,1.422931552,3.893048525,6.683711052,0.063809238,-0.791611552,0.43156755
0.844,1.449315667,3.929986238,6.728338718,0.056496307,-0.80611521,0.429333538
0.846,1.466410279,3.951170206,6.742282867,0.048467793,-0.822119892,0.42620939
0.848,1.496050358,3.997569799,6.770467281,0.039531708,-0.839363754,0.42336452
0.85,1.559104085,4.047771454,6.811983109,0.029251719,-0.857427895,0.420938522
0.852,1.577893853,4.062739849,6.819864273,0.017191494,-0.875841141,0.418058723
0.854,1.618183494,4.081165791,6.836346149,0.005323254,-0.895004809,0.414690226
0.856,1.728067756,4.104351044,6.865056992,-0.006108652,-0.914796889,0.411094844
0.858,1.798629642,4.122805595,6.879173279,-0.018989183,-0.93549645,0.407429665
0.86,1.917219281,4.113554478,6.960193157,-0.033370696,-0.957801759,0.403415412
0.862,1.946533799,4.107703209,6.996039391,-0.047752209,-0.98077029,0.39924407
0.864,1.974957943,4.099716187,7.055846691,-0.062447879,-1.00431478,0.394706219
0.866,2.009702444,4.101296425,7.115356922,-0.077579886,-1.02810359,0.390342891
0.868,2.057931423,4.11629343,7.176456928,-0.092886426,-1.051997185,0.385403603
0.87,2.111005783,4.1690135,7.244873524,-0.109868474,-1.075297356,0.379294962
0.872,2.136192799,4.185169697,7.264429092,-0.127810463,-1.096764922,0.373011768
0.874,2.274031878,4.279635906,7.291282654,-0.145228848,-1.117830992,0.366047889
0.876,2.338349819,4.346347809,7.282893658,-0.160832092,-1.138705134,0.357844859
0.878,2.372864485,4.374962807,7.282002926,-0.175073981,-1.159195304,0.349449813
0.88,2.446739912,4.427759647,7.278306007,-0.188129038,-1.180156708,0.339728326
0.882,2.555666685,4.489032269,7.243015766,-0.200084552,-1.199739337,0.328191698
0.884,2.601223707,4.490095139,7.228573799,-0.210940495,-1.217820883,0.316550374
0.886,2.619199276,4.490794659,7.223957539,-0.220714331,-1.234645963,0.304542512
0.888,2.644003153,4.495659828,7.193723679,-0.229755148,-1.249376535,0.291766703
0.89,2.65564847,4.499461651,7.173057079,-0.236596838,-1.263583422,0.278048396
0.892,2.642643213,4.498762608,7.1808815,-0.241256863,-1.277580976,0.264260292
0.894,2.635661602,4.492154121,7.203789234,-0.24474752,-1.28864634,0.25043729
0.896,2.630250692,4.503158092,7.249288559,-0.247417867,-1.296290994,0.235654354
0.898,2.624830246,4.517647743,7.310101032,-0.249774069,-1.300985932,0.220173284
0.9,2.625165462,4.547863007,7.381659031,-0.251990646,-1.302277446,0.204081342
0.902,2.61908412,4.594769955,7.489589691,-0.254172295,-1.30184114,0.187116742
0.904,2.612648726,4.598390102,7.537876129,-0.256947368,-1.299467444,0.169803083
0.906,2.609603167,4.612726688,7.558465958,-0.259338468,-1.296290994,0.153274819
0.908,2.607007742,4.651129246,7.588403225,-0.261258334,-1.293725252,0.136449844
0.91,2.599126339,4.689455986,7.600259304,-0.26487118,-1.288576603,0.120759331
0.912,2.577252626,4.741228104,7.579535007,-0.269513756,-1.279553175,0.108070783
0.914,2.561565876,4.758667469,7.568770409,-0.274226129,-1.270809174,0.095015727
0.916,2.526227474,4.7949543,7.548659325,-0.28057912,-1.263478756,0.080546945
0.918,2.495121956,4.82972765,7.529084682,-0.28820622,-1.253862023,0.067073002
0.92,2.469724417,4.911484241,7.492270947,-0.296688527,-1.241732001,0.054646257
0.922,2.457513809,4.944246769,7.479543686,-0.307073236,-1.228589654,0.042970005
0.924,2.425939322,4.997733593,7.452364922,-0.319517434,-1.216302514,0.032201324
0.926,2.377499819,5.052388191,7.439311504,-0.334352732,-1.204992771,0.021834068
0.928,2.326206207,5.101076603,7.425798416,-0.350811184,-1.193438649,0.011938052
0.93,2.273409367,5.138885975,7.402469158,-0.367932856,-1.18148315,0.002844887
0.932,2.168035984,5.190505028,7.353426933,-0.385944665,-1.169039011,-0.005881759
0.934,2.09929347,5.206009865,7.323872566,-0.404968739,-1.156071186,-0.014800392
0.936,2.065420389,5.215998173,7.303033352,-0.425319284,-1.144168019,-0.024434609
0.938,1.956302285,5.199410915,7.262351036,-0.44624579,-1.134271979,-0.034679692
0.94,1.919048429,5.190006733,7.250935555,-0.46706757,-1.125824571,-0.045151666
0.942,1.843918324,5.168095112,7.230173111,-0.48879692,-1.120187163,-0.056984998
0.944,1.774189711,5.123160839,7.209037304,-0.510264456,-1.117883325,-0.069708452
0.946,1.7102741,5.087640285,7.204890251,-0.530056477,-1.118214965,-0.082449354
0.948,1.675012231,5.070957661,7.207705975,-0.548836231,-1.120239615,-0.095539324
0.95,1.646751046,5.063391685,7.213001728,-0.566586256,-1.124533057,-0.109065622
0.952,1.639558911,5.077010155,7.224876881,-0.583289027,-1.131968141,-0.122783914
0.954,1.664324522,5.087343216,7.249240875,-0.597967267,-1.141305685,-0.136572018
0.956,1.690948009,5.105826855,7.282261372,-0.609940231,-1.152371049,-0.150709182
0.958,1.709373832,5.118917942,7.30173111,-0.61987114,-1.16507709,-0.165614292
0.96,1.773203254,5.139929771,7.357975483,-0.628004372,-1.178446293,-0.181776047
0.962,1.878308773,5.176445961,7.441590786,-0.63385123,-1.193054676,-0.199089706
0.964,1.956081867,5.201067924,7.481018543,-0.636853218,-1.209408402,-0.217817083
0.966,1.996151209,5.201796055,7.498562813,-0.638092399,-1.226163626,-0.237120435
0.968,2.112164736,5.190399647,7.516739845,-0.637638569,-1.242150784,-0.25633651
0.97,2.181117773,5.184098244,7.517438889,-0.634619176,-1.257178068,-0.277105928
0.972,2.200357676,5.183599949,7.511443615,-0.628964305,-1.271803975,-0.298817813
0.974,2.223188639,5.17138958,7.501608372,-0.620674014,-1.287546873,-0.319953769
0.976,2.248567104,5.153997898,7.493630886,-0.610341609,-1.303743482,-0.341194421
0.978,2.24912262,5.147255898,7.474975586,-0.59983474,-1.318858027,-0.36341247
0.98,2.226626635,5.146144867,7.466365814,-0.588612258,-1.332593799,-0.385386139
0.982,2.178033829,5.180956364,7.454700947,-0.576150656,-1.344496965,-0.406644255
0.984,2.163151503,5.189959049,7.449481964,-0.563182831,-1.353747129,-0.428251445
0.986,2.126491785,5.216371536,7.441887856,-0.550337195,-1.359105349,-0.450609118
0.988,2.080273867,5.266400814,7.437520504,-0.538468957,-1.360955358,-0.472338468
0.99,2.041296482,5.321007729,7.427101135,-0.527333796,-1.359506726,-0.493177682
0.992,2.015007973,5.377654552,7.40686512,-0.516477823,-1.355126023,-0.513650417
0.994,1.978434205,5.424944878,7.374456882,-0.507018149,-1.349244237,-0.533669353
0.996,1.94090271,5.480030537,7.343744755,-0.499687761,-1.341163397,-0.55443877
0.998,1.857670665,5.533516884,7.319840908,-0.495132446,-1.329993248,-0.575208187
1,1.796771765,5.579361439,7.289654732,-0.49391073,-1.317234874,-0.594703496
1.002,1.793668866,5.673482418,7.196960926,-0.494992822,-1.302574158,-0.612418592
1.004,1.731103659,5.738872528,7.131474495,-0.497645736,-1.286499619,-0.629732251
1.006,1.682443857,5.778386593,7.106680393,-0.502183557,-1.269866705,-0.646888852
1.008,1.641972303,5.812413216,7.053634167,-0.508780956,-1.25108695,-0.663015664
1.01,1.593436956,5.835062027,7.019598007,-0.516198576,-1.231137753,-0.679055274
1.012,1.539787769,5.865018368,7.017318726,-0.523947835,-1.210403323,-0.694745779
1.014,1.493953109,5.897866726,7.016160011,-0.532465041,-1.189948082,-0.710279167
1.016,1.445149779,5.923206806,7.022758961,-0.540982246,-1.17122066,-0.72670275
1.018,1.442717195,5.969501495,7.044220448,-0.548242807,-1.153173923,-0.743806958
1.02,1.447591782,6.025152206,7.048779011,-0.554351449,-1.135738134,-0.760858834
1.022,1.457321882,6.058067799,7.064935207,-0.559360564,-1.119157434,-0.777910709
1.024,1.489519,6.09655714,7.066658497,-0.564247489,-1.104531646,-0.795259297
1.026,1.530957937,6.136970997,7.060998917,-0.57002455,-1.091633677,-0.812119126
1.028,1.580833912,6.174483299,7.055386543,-0.575208187,-1.079433799,-0.828437984
1.03,1.62882328,6.207494736,7.057780743,-0.579850733,-1.068473101,-0.843919039
1.032,1.680269957,6.220404148,7.057503223,-0.5845806,-1.058001161,-0.857811868
1.034,1.75635767,6.235640526,7.049123764,-0.58903116,-1.047756076,-0.871983945
1.036,1.813157678,6.246194363,7.051651955,-0.592731237,-1.038837433,-0.886906505
1.038,1.870273829,6.251337528,7.063804626,-0.594563842,-1.031123042,-0.9018116
1.04,1.931565285,6.274436474,7.085170746,-0.595611036,-1.024176598,-0.916716754
1.042,1.977696776,6.291703701,7.10353899,-0.596361578,-1.018207669,-0.932250142
1.044,2.025360584,6.327013016,7.126896858,-0.595087469,-1.012936711,-0.948359549
1.046,2.084631443,6.36438179,7.153932095,-0.592364729,-1.008887529,-0.962182581
1.048,2.155346632,6.411700726,7.171208382,-0.587460399,-1.00534451,-0.975377262
1.05,2.212242365,6.469611645,7.184846401,-0.577895939,-1.004541755,-0.991486609
1.052,2.251928806,6.518903732,7.19698,-0.565155089,-1.006426692,-1.007508755
1.054,2.285275221,6.568482876,7.225557327,-0.55114007,-1.00876534,-1.022239327
1.056,2.307713509,6.621116638,7.258070469,-0.536269844,-1.01161027,-1.035817981
1.058,2.306372881,6.65816021,7.277099609,-0.522342145,-1.013722181,-1.047337174
1.06,2.294507027,6.699751854,7.274839401,-0.509077609,-1.016776443,-1.057704449
1.062,2.291969299,6.736258984,7.262763023,-0.495795667,-1.020563841,-1.066972136
1.064,2.289239883,6.793346405,7.25752449,-0.482496262,-1.023984671,-1.074546814
1.066,2.291538239,6.835685253,7.245754242,-0.469511032,-1.02822578,-1.081405997
1.068,2.285830498,6.858641148,7.246424675,-0.45886451,-1.032467008,-1.087357521
1.07,2.29680562,6.900261879,7.273939133,-0.449160487,-1.035468936,-1.093256831
1.072,2.282880783,6.955289841,7.303138733,-0.436053067,-1.039518118,-1.101651788
1.074,2.275822639,7.004849911,7.331380844,-0.421252668,-1.044649363,-1.111373305
1.076,2.26127553,7.059887886,7.379504204,-0.407970697,-1.048000455,-1.121024966
1.078,2.260251045,7.108490467,7.442873955,-0.397516191,-1.049990058,-1.129053473
1.08,2.255041122,7.159256935,7.491504669,-0.388510287,-1.052067041,-1.137047052
1.082,2.245847464,7.182260036,7.534418583,-0.376973659,-1.054807186,-1.147885561
1.084,2.25447607,7.183524609,7.574258327,-0.364686549,-1.05812335,-1.159875989
1.086,2.259571075,7.173335075,7.617076397,-0.353376806,-1.060741305,-1.171063542
1.088,2.285763502,7.162129879,7.673952579,-0.343096823,-1.062434316,-1.180348754
1.09,2.329835892,7.155004978,7.744045258,-0.333218247,-1.064703226,-1.189808369
1.092,2.374799013,7.134031773,7.83919096,-0.320686787,-1.069101453,-1.202811122
1.094,2.430813789,7.112905502,7.951603413,-0.307684094,-1.074372292,-1.217262387
1.096,2.499613523,7.079079628,8.088254929,-0.297037572,-1.079346538,-1.23071897
1.098,2.5756917,7.044660568,8.245429993,-0.288276017,-1.085158467,-1.243459821
1.1,2.652976513,7.013679504,8.405687332,-0.279025793,-1.090376973,-1.256218195
1.102,2.732416153,6.977920055,8.567986488,-0.269897729,-1.094705462,-1.26930809
1.104,2.817611456,6.939947605,8.734679222,-0.263352722,-1.098667264,-1.281577826
1.106,2.906599045,6.910087585,8.904553413,-0.258779973,-1.101861238,-1.29161346
1.108,3.007682323,6.892906666,9.063643456,-0.255027503,-1.105386853,-1.30138731
1.11,3.121914625,6.885541916,9.222426414,-0.250978351,-1.109645486,-1.312941432
1.112,3.253902197,6.889410973,9.357095718,-0.246807009,-1.114218235,-1.326485157
1.114,3.41943717,6.91232872,9.479027748,-0.243839949,-1.118930578,-1.340517521
1.116,3.584895849,6.941729546,9.60293293,-0.242321506,-1.122421265,-1.351286292
1.118,3.742051125,6.991835117,9.725621223,-0.240122393,-1.125737309,-1.360396862
1.12,3.901696444,7.037037373,9.85045433,-0.236701548,-1.128041148,-1.371374965
1.122,4.069797993,7.060136795,9.964963913,-0.232163698,-1.129280329,-1.384988546
1.124,4.190485001,7.085170746,10.0955534,-0.226840437,-1.130432248,-1.399684191
1.126,4.282298088,7.104487419,10.18514442,-0.22151719,-1.131200194,-1.414502144
1.128,4.31410265,7.117176056,10.28946495,-0.216822252,-1.132160187,-1.42780149
1.13,4.456116676,7.163499355,10.38567352,-0.212389112,-1.13254416,-1.43951261
1.132,4.602172852,7.249968052,10.38767433,-0.208060697,-1.131112933,-1.454400301
1.134,4.683959007,7.337864399,10.43803024,-0.204709664,-1.127377987,-1.471487045
1.136,4.751570702,7.422772408,10.51304531,-0.202405825,-1.12207222,-1.487928033
1.138,4.803218842,7.504472256,10.54235935,-0.201777518,-1.116452217,-1.500930786
1.14,4.855536461,7.572122574,10.55395699,-0.202475652,-1.110046864,-1.511577249
1.142,4.881240845,7.653065681,10.57270908,-0.204657301,-1.100185752,-1.525068641
1.144,4.86559248,7.719020844,10.57366562,-0.208374858,-1.088282585,-1.539083719
1.146,4.853468418,7.766426086,10.55264568,-0.212109864,-1.078072429,-1.549206614
1.148,4.820437908,7.797072411,10.5334053,-0.216455728,-1.067914605,-1.557112932
1.15,4.772736073,7.822182655,10.5032959,-0.221709177,-1.055889249,-1.565385818
1.152,4.719316483,7.843921661,10.47427845,-0.226997525,-1.042467713,-1.573169947
1.154,4.667524815,7.852694511,10.46096706,-0.234205738,-1.02785933,-1.581076264
1.156,4.60021925,7.840962887,10.45326614,-0.242496043,-1.01433301,-1.588406682
1.158,4.517332077,7.816311836,10.4540329,-0.249355182,-1.004087925,-1.593590379
1.16,4.419820786,7.776453018,10.45395565,-0.255620927,-0.996129215,-1.598547101
1.162,4.301355839,7.726721287,10.45164871,-0.262270629,-0.988798857,-1.60402739
1.164,4.17428112,7.664557934,10.43575954,-0.270648211,-0.982341111,-1.610362887
1.166,4.066302299,7.583758354,10.4358654,-0.278798908,-0.977489114,-1.61610508
1.168,3.948670626,7.499942303,10.44609356,-0.285274059,-0.974260211,-1.620957136
1.17,3.831613302,7.412438869,10.45275879,-0.291696876,-0.972322941,-1.626734138
1.172,3.736171007,7.326803207,10.46076584,-0.298416406,-0.973108292,-1.632546067
1.174,3.663128614,7.233391285,10.47551346,-0.305572242,-0.976581514,-1.637450457
1.176,3.603637457,7.143521786,10.51137924,-0.312588453,-0.981154263,-1.641325116
1.178,3.566019773,7.054141521,10.56569862,-0.317964077,-0.985535085,-1.644798279
1.18,3.54775691,6.947820187,10.64839363,-0.322048158,-0.990788519,-1.647800207
1.182,3.524504423,6.841881275,10.74684334,-0.325294465,-0.998939216,-1.649964452
1.184,3.513098478,6.738126278,10.85982132,-0.327563405,-1.011086702,-1.651797056
1.186,3.531696558,6.635118008,10.99886703,-0.329116732,-1.023286581,-1.653472543
1.188,3.567236185,6.527656555,11.16305161,-0.331315845,-1.035835505,-1.654798985
1.19,3.670722961,6.375366688,11.34608364,-0.33348006,-1.049466491,-1.655968428
1.192,3.762918949,6.231724262,11.55930138,-0.333096087,-1.059432268,-1.656753778
1.194,3.857968807,6.090015888,11.74612617,-0.330739886,-1.067582965,-1.657713771
1.196,3.96409893,5.954628468,11.92704105,-0.326935083,-1.076274753,-1.659040213
1.198,4.089095592,5.835426331,12.0994339,-0.322536856,-1.08327353,-1.660226941
1.2,4.246720314,5.746553421,12.23418808,-0.317597568,-1.088980675,-1.661640763
1.202,4.401844978,5.68350935,12.33850861,-0.310860604,-1.097602606,-1.66286242
1.204,4.561701298,5.622208118,12.42611694,-0.300842404,-1.10933125,-1.663665295
1.206,4.723443985,5.597614765,12.50026035,-0.291086018,-1.120099902,-1.664625168
1.208,4.891919136,5.596005917,12.55178452,-0.284279227,-1.128268123,-1.665340781
1.21,5.041604519,5.600880146,12.58128166,-0.279305041,-1.134743214,-1.665934205
1.212,5.187067032,5.607794762,12.58990955,-0.275692195,-1.140223622,-1.667766809
1.214,5.314706326,5.619382858,12.5711298,-0.27328366,-1.144342542,-1.671344757
1.216,5.428747177,5.633087635,12.54311752,-0.272934586,-1.146349669,-1.675952435
1.218,5.514172554,5.631698608,12.50676346,-0.275308222,-1.147152543,-1.680053949
1.22,5.602115631,5.634102345,12.46125507,-0.280701309,-1.146541715,-1.683614373
1.222,5.666941643,5.636535168,12.42116642,-0.287001938,-1.143138289,-1.686947942
1.224,5.725512981,5.644761086,12.37694073,-0.297142297,-1.135755539,-1.689566016
1.226,5.778779507,5.670369625,12.34104729,-0.309150159,-1.127377987,-1.691276431
1.228,5.827218533,5.701695919,12.3248806,-0.319098532,-1.118598938,-1.692916989
1.23,5.852625847,5.719594955,12.31875229,-0.330076665,-1.105561376,-1.694836855
1.232,5.849868298,5.734294891,12.33723545,-0.342765212,-1.088893414,-1.696564794
1.234,5.838260651,5.75342989,12.37087917,-0.358979315,-1.067268848,-1.699793577
1.236,5.823330402,5.752155781,12.40802765,-0.37409386,-1.046796083,-1.703004956
1.238,5.789361954,5.734313965,12.44312572,-0.387515456,-1.030564547,-1.705902219
1.24,5.749569893,5.707173347,12.49394989,-0.403066337,-1.012901783,-1.709584951
1.242,5.702231884,5.672677517,12.53592491,-0.418564856,-0.99499476,-1.712988257
1.244,5.648151875,5.645163536,12.57891464,-0.434639335,-0.973178148,-1.717526197
1.246,5.572849274,5.600306034,12.61362171,-0.44909066,-0.952304006,-1.722221136
1.248,5.506299973,5.565551758,12.63576412,-0.460644752,-0.935601175,-1.726340055
1.25,5.445333958,5.53199482,12.64933395,-0.47102946,-0.919020593,-1.729918003
1.252,5.387949944,5.502680302,12.66769218,-0.47968629,-0.903434753,-1.732309103
1.254,5.312321663,5.471392632,12.70132637,-0.487295926,-0.887936235,-1.735188842
1.256,5.28359127,5.437146187,12.72905064,-0.493875831,-0.873729289,-1.737929106
1.258,5.265663624,5.401060581,12.74152088,-0.498762727,-0.861319959,-1.740302682
1.26,5.234184742,5.368834496,12.76673508,-0.500752389,-0.849957883,-1.741908431
1.262,5.184634209,5.331800938,12.81760788,-0.499984473,-0.840288758,-1.741925836
1.264,5.115747929,5.287211418,12.86888218,-0.497139573,-0.831928611,-1.741943359
1.266,5.041863441,5.217214584,12.92115211,-0.49094367,-0.823795378,-1.741943359
1.268,4.963974953,5.137075901,12.99028683,-0.481780678,-0.817320228,-1.741315007
1.27,4.894696236,5.05575943,13.05951786,-0.470488399,-0.812154055,-1.740738988
1.272,4.843565941,4.973474979,13.11075401,-0.45704937,-0.807528913,-1.740198016
1.274,4.802787781,4.894762993,13.16023731,-0.4417952,-0.804701507,-1.7380687
1.276,4.782868385,4.827342987,13.18893814,-0.425162196,-0.803235412,-1.735311031
1.278,4.757192612,4.784927368,13.19981861,-0.406714082,-0.80327034,-1.73419404
1.28,4.748046875,4.761435032,13.18650723,-0.387218744,-0.804858565,-1.733426094
1.282,4.754740715,4.738938808,13.14216614,-0.367287099,-0.806150138,-1.732483625
1.284,4.7714715,4.7313447,13.08093166,-0.347495049,-0.806673706,-1.733042121
1.286,4.810880184,4.757211685,13.00813866,-0.328069538,-0.808139801,-1.735171437
1.288,4.85477066,4.781575203,12.9281435,-0.308801115,-0.811263919,-1.737929106
1.29,4.897349358,4.806972504,12.85875988,-0.290230811,-0.815382898,-1.740616798
1.292,4.932678223,4.821251869,12.7869997,-0.271939755,-0.820531666,-1.744247198
1.294,4.967116356,4.818848133,12.71816254,-0.255970001,-0.827355862,-1.748243928
1.296,5.003249645,4.808418751,12.6289835,-0.243159264,-0.835506558,-1.751141191
1.298,5.051238537,4.799062729,12.53457546,-0.231936798,-0.843866706,-1.753252983
1.3,5.073945522,4.803879261,12.45800781,-0.223279968,-0.852645695,-1.754439831
1.302,5.088138103,4.804022789,12.39751148,-0.218480319,-0.859993517,-1.754928589
1.304,5.114387989,4.800766945,12.34805679,-0.217485473,-0.864566267,-1.754492283
1.306,5.122030735,4.787934303,12.32169247,-0.219911486,-0.866747975,-1.753671885
1.308,5.137411118,4.761186123,12.32253551,-0.225636169,-0.867323935,-1.753340364
1.31,5.15592289,4.735941887,12.33308887,-0.233961389,-0.865648389,-1.754160643
1.312,5.158814907,4.69123745,12.34551907,-0.24588199,-0.85992372,-1.755434752
1.314,5.168392181,4.653073788,12.35260582,-0.260821998,-0.851284325,-1.756900787
1.316,5.183465958,4.615091801,12.37449837,-0.27637288,-0.839869857,-1.760024905
1.318,5.178562641,4.585614681,12.38168049,-0.292185575,-0.824807704,-1.763515592
1.32,5.177796364,4.561528683,12.3774004,-0.309342146,-0.807005346,-1.767128468
1.322,5.195772171,4.553503513,12.36999702,-0.327703029,-0.786183536,-1.771770954
1.324,5.209380627,4.534618378,12.37508297,-0.345261037,-0.762237668,-1.77744329
1.326,5.214887142,4.519763947,12.38824081,-0.361894012,-0.73672092,-1.784162879
1.328,5.226676464,4.501645088,12.41682816,-0.378125578,-0.709284365,-1.791964412
1.33,5.250972748,4.480298519,12.46309376,-0.392943412,-0.678863287,-1.800499082
1.332,5.28707695,4.455150127,12.51523972,-0.405282915,-0.64910537,-1.808387995
1.334,5.341980934,4.424877644,12.569664,-0.415667623,-0.616799355,-1.816329241
1.336,5.413328171,4.393867493,12.6392107,-0.423678666,-0.581875324,-1.824305415
1.338,5.517724991,4.378870487,12.71380424,-0.428216517,-0.554403842,-1.829750776
1.34,5.634590626,4.363116741,12.79081154,-0.431009054,-0.529323459,-1.832298994
1.342,5.781614304,4.342114925,12.86756992,-0.433400154,-0.500490606,-1.83364296
1.344,5.930399418,4.331244946,12.92912006,-0.434377551,-0.470139325,-1.83545804
1.346,6.090456486,4.329684258,12.96802998,-0.43350488,-0.439473897,-1.837133527
1.348,6.257025719,4.336799145,12.98762512,-0.431270868,-0.410257101,-1.837831736
1.35,6.413357735,4.343599319,12.99101448,-0.427186787,-0.381965309,-1.838110924
1.352,6.537061691,4.345983982,12.97328854,-0.420798868,-0.354336739,-1.83727324
1.354,6.66626215,4.359650135,12.93058491,-0.413154334,-0.328575671,-1.835353374
1.356,6.769595623,4.368000984,12.88025856,-0.406242847,-0.304210901,-1.833311319
1.358,6.856256485,4.384549141,12.83900166,-0.40060541,-0.281347066,-1.830588579
1.36,6.945071697,4.403999805,12.79131889,-0.394828379,-0.260682374,-1.827586651
1.362,7.014532089,4.425499916,12.74449825,-0.388998985,-0.2412045,-1.824462533
1.364,7.064522743,4.436522961,12.69152927,-0.383797914,-0.223192707,-1.821303487
1.366,7.09935379,4.454919815,12.64113617,-0.379469484,-0.207327664,-1.818755269
1.368,7.119426727,4.46602869,12.59641171,-0.375804305,-0.192352742,-1.816765547
1.37,7.10423851,4.46811676,12.56818962,-0.373692453,-0.178372651,-1.814688683
1.372,7.085525036,4.47410202,12.52569771,-0.373448104,-0.164776534,-1.811965942
1.374,7.054601669,4.463740349,12.50074005,-0.374931634,-0.150098309,-1.807689905
1.376,7.009590149,4.443906784,12.47828197,-0.379015684,-0.134652153,-1.801214695
1.378,6.959944248,4.422952652,12.45530796,-0.385089457,-0.118577667,-1.793535233
1.38,6.913879871,4.400542259,12.42134857,-0.393885911,-0.101630524,-1.785349607
1.382,6.846516609,4.374886036,12.39364243,-0.40629518,-0.084613562,-1.776343703
1.384,6.766119003,4.354727268,12.36936569,-0.422718734,-0.068224922,-1.766674638
1.386,6.674660683,4.343790531,12.34462929,-0.443592876,-0.052394785,-1.75674367
1.388,6.564240456,4.300714016,12.31961441,-0.467887878,-0.035866518,-1.747022271
1.39,6.452095509,4.251623631,12.30095768,-0.496074945,-0.017453292,-1.737702131
1.392,6.334904194,4.187860966,12.30174351,-0.528695107,0.002024582,-1.728853345
1.394,6.232614517,4.116906166,12.31195259,-0.564387143,0.022898721,-1.720196486
1.396,6.136779308,4.049150467,12.34769344,-0.602278233,0.044645522,-1.710684419
1.398,6.04417181,3.971607208,12.38329029,-0.647674203,0.069917887,-1.700491786
1.4,5.972115517,3.900259972,12.4268837,-0.690155566,0.0940907,-1.692236304
1.402,5.915957451,3.797644615,12.47072697,-0.724800348,0.113725655,-1.685726285
1.404,5.861379623,3.692414522,12.50572968,-0.760684311,0.133378059,-1.678971887
1.406,5.815429688,3.596665621,12.55181313,-0.795486152,0.1521229,-1.671798468
1.408,5.803985119,3.48273015,12.61817074,-0.829223394,0.169855446,-1.664153934
1.41,5.817900181,3.387938976,12.71107483,-0.860325158,0.186540783,-1.656614184
1.412,5.840616703,3.300522089,12.83829403,-0.887814105,0.200904846,-1.649458289
1.414,5.874997616,3.224980116,12.98637962,-0.912266135,0.212109864,-1.643052936
1.416,5.942753315,3.139746666,13.13256931,-0.933262467,0.221726626,-1.636665106
1.418,6.052704811,3.041383028,13.28066635,-0.9509601,0.230697617,-1.630277157
1.42,6.120805264,2.966636181,13.39085674,-0.965743005,0.238446876,-1.62451756
1.422,6.199124336,2.925628185,13.44413185,-0.97837919,0.244450808,-1.619333982
1.424,6.307409763,2.909970284,13.49971581,-0.989531875,0.248465076,-1.614708781
1.426,6.423269749,2.900354862,13.52413654,-0.999742031,0.251048148,-1.61029315
1.428,6.568549633,2.895672083,13.50670719,-1.007386565,0.252409518,-1.605650544
1.43,6.721146584,2.921787977,13.4954443,-1.012378216,0.252968013,-1.599349856
1.432,6.894314289,2.942617416,13.47043991,-1.015676856,0.253194928,-1.593311071
1.434,7.057905197,2.973780632,13.43544674,-1.016706705,0.253596336,-1.58959353
1.436,7.214744568,2.996439219,13.41883945,-1.016183019,0.255341679,-1.58650434
1.438,7.377598763,3.005038977,13.40607452,-1.014385343,0.256685585,-1.583031058
1.44,7.529860497,3.0229671,13.40499115,-1.010179162,0.255970001,-1.579732418
1.442,7.675494671,3.028722763,13.40616989,-1.004367113,0.254102498,-1.576486111
1.444,7.817671776,3.037006617,13.40498257,-0.999480248,0.252392054,-1.572000623
1.446,7.947562218,3.051486492,13.40812302,-0.994017363,0.251693934,-1.566398144
1.448,8.064639091,3.070333719,13.4037466,-0.987995982,0.251414686,-1.560952663
1.45,8.169427872,3.061187983,13.41370678,-0.983021796,0.25225243,-1.555280328
1.452,8.249787331,3.064961195,13.44115353,-0.978483915,0.254172295,-1.549171686
1.454,8.312878609,3.073475122,13.47634888,-0.974731505,0.255900174,-1.542905927
1.456,8.339071274,3.060009956,13.51451206,-0.971624792,0.256598294,-1.535610437
1.458,8.333995819,3.025935888,13.56528854,-0.968151569,0.257505864,-1.526971102
1.46,8.322561264,2.982322931,13.62225056,-0.965481222,0.26008895,-1.51744163
1.462,8.292222023,2.916740894,13.68725872,-0.964084983,0.262096107,-1.507580519
1.464,8.215530396,2.809394598,13.75618267,-0.963509023,0.264487207,-1.497248173
1.466,8.132423401,2.68430233,13.82497311,-0.964224577,0.269251943,-1.48515296
1.468,8.044384003,2.53297925,13.89641571,-0.965777934,0.27307421,-1.47138238
1.47,7.952359676,2.36849761,13.96617413,-0.967977047,0.274959177,-1.457890987
1.472,7.839813709,2.210317373,14.0298214,-0.97108376,0.275395513,-1.444190145
1.474,7.726701736,2.038500071,14.10000038,-0.975516856,0.274645001,-1.429773688
1.476,7.62123251,1.867917895,14.15871525,-0.981730223,0.273702532,-1.416020513
1.478,7.517678261,1.697977424,14.21747875,-0.988990843,0.273318559,-1.40252912
1.48,7.42333746,1.53016305,14.27005482,-0.996373534,0.274103969,-1.388828278
1.482,7.314506531,1.365710139,14.33646107,-1.00410533,0.275046438,-1.376000166
1.484,7.221975803,1.20729053,14.41542149,-1.012308359,0.27670449,-1.36352098
1.486,7.131723404,1.039361238,14.47451115,-1.020703435,0.280840933,-1.35053575
1.488,7.050655842,0.867160678,14.52058411,-1.027911663,0.286635429,-1.338632584
1.49,6.973792553,0.711116195,14.58348465,-1.033985376,0.293407291,-1.328422427
1.492,6.891019821,0.573574126,14.63750744,-1.040565252,0.300912201,-1.318578839
1.494,6.817575455,0.478983969,14.67080593,-1.047040462,0.309324712,-1.309834719
1.496,6.768858433,0.436903507,14.69696999,-1.053463221,0.319063634,-1.302172661
1.498,6.722908497,0.418142557,14.73074722,-1.059868693,0.329657793,-1.295592785
1.5,6.68070364,0.430113554,14.78062344,-1.065628171,0.34122932,-1.28943181
1.502,6.625943661,0.475153267,14.82479191,-1.072068453,0.355715543,-1.283148646
1.504,6.570321083,0.52952081,14.8809309,-1.079119563,0.374565095,-1.277738094
1.506,6.523442745,0.607265294,14.94629288,-1.086397648,0.395805776,-1.272694111
1.508,6.483995914,0.707247198,15.01038074,-1.093780398,0.415178925,-1.267178893
1.51,6.4518466,0.825300455,15.07022572,-1.099941373,0.433487415,-1.262082458
1.512,6.439195633,0.956608117,15.12276459,-1.106242061,0.456089437,-1.25780642
1.514,6.444156647,1.088135958,15.17218113,-1.113851666,0.47980845,-1.253216267
1.516,6.481793404,1.222805023,15.19578743,-1.121374011,0.502410471,-1.249149561
1.518,6.558772087,1.372969389,15.20638847,-1.12821579,0.525483728,-1.244960785
1.52,6.661272526,1.533993721,15.20777702,-1.135738134,0.547195613,-1.239148855
1.522,6.798306942,1.7119596,15.18310738,-1.143853903,0.568977356,-1.233005285
1.524,6.975928307,1.879505754,15.15191555,-1.150625706,0.591090679,-1.227036238
1.526,7.179837227,2.056667328,15.1214819,-1.155599952,0.612732768,-1.220177174
1.528,7.404135704,2.225353003,15.10124493,-1.15950954,0.633833766,-1.21265471
1.53,7.63256216,2.382230759,15.09909916,-1.162057638,0.654742837,-1.204853177
1.532,7.870277405,2.518978119,15.08586502,-1.163401604,0.67367965,-1.19694674
1.534,8.097803116,2.624753714,15.08999252,-1.163960099,0.689579606,-1.188045621
1.536,8.321613312,2.698543072,15.10738373,-1.162912846,0.704903603,-1.178114653
1.538,8.534831047,2.723720551,15.14165878,-1.160277486,0.719965756,-1.169021487
1.54,8.725534439,2.702412128,15.18639278,-1.155425429,0.733684063,-1.159317493
1.542,8.885590553,2.636763096,15.25224304,-1.149334192,0.74525559,-1.148740768
1.544,9.027011871,2.539347887,15.34050274,-1.142125964,0.756286085,-1.138757467
1.546,9.106805801,2.425699711,15.44340515,-1.133207321,0.766775489,-1.128372788
1.548,9.209220886,2.22070837,15.53016186,-1.1238873,0.776409686,-1.117830992
1.55,9.247154236,2.017612934,15.65294647,-1.114724278,0.784734964,-1.107550979
1.552,9.224456787,1.810016513,15.70618343,-1.105316997,0.7909832,-1.096729994
1.554,9.214305878,1.564457655,15.74807262,-1.09580493,0.796358824,-1.085699558
1.556,9.174744606,1.316629052,15.8072567,-1.086886287,0.800442874,-1.07395339
1.558,9.106259346,1.092512608,15.84719276,-1.077880383,0.803043425,-1.061282396
1.56,9.019934654,0.898630083,15.8821764,-1.069799542,0.804736435,-1.049501419
1.562,8.920210838,0.728086293,15.91174984,-1.063045144,0.805434525,-1.03775537
1.564,8.814100266,0.560224056,15.92878723,-1.055557728,0.806656241,-1.025398374
1.566,8.694821358,0.420402676,15.93423653,-1.048087716,0.807790756,-1.013425469
1.568,8.57658577,0.309838444,15.94453144,-1.041891694,0.806987882,-1.001609564
1.57,8.465092659,0.227142707,15.94731712,-1.035573602,0.805399656,-0.990160167
1.572,8.35832119,0.16179058,15.9209528,-1.027963996,0.804439724,-0.979513705
1.574,8.254106522,0.124642141,15.87432289,-1.019499183,0.804038286,-0.969809651
1.576,8.175623894,0.10627383,15.81718826,-1.011313558,0.804195344,-0.961449504
1.578,8.099928856,0.114902526,15.74716187,-1.003564358,0.804893494,-0.954572916
1.58,8.028055191,0.166224644,15.66471577,-0.995361269,0.805801034,-0.947347283
1.582,7.961439133,0.224039823,15.57358265,-0.987280369,0.807755828,-0.939667821
1.584,7.913554668,0.287524462,15.47401237,-0.979897678,0.810757816,-0.933716238
1.586,7.872288704,0.361735135,15.35865021,-0.972462535,0.813567758,-0.928445339
1.588,7.83323431,0.447447568,15.2319212,-0.964399099,0.815644741,-0.923139572
1.59,7.804954052,0.536329866,15.1016283,-0.956056476,0.81840235,-0.918462038
1.592,7.778588772,0.653080761,14.9846859,-0.947923243,0.822975099,-0.913714767
1.594,7.753401756,0.766987324,14.86468887,-0.939894676,0.828315795,-0.909246743
1.596,7.756945133,0.895019651,14.73918438,-0.932511985,0.832714021,-0.905860782
1.598,7.774758339,1.021797419,14.60249519,-0.924466014,0.837007523,-0.902579546
1.6,7.806237221,1.136039138,14.44104862,-0.914866686,0.843186021,-0.899036527
1.602,7.840790749,1.25369978,14.24869919,-0.905284822,0.849172473,-0.894446313
1.604,7.892600536,1.36250186,14.04931927,-0.89633131,0.853186727,-0.889105618
1.606,7.937602043,1.452830315,13.84082222,-0.887325406,0.856083989,-0.884079099
1.608,7.960778236,1.480842471,13.73311234,-0.877027929,0.858213306,-0.878877997
1.61,8.006746292,1.528602004,13.44141197,-0.866206884,0.85971427,-0.872978807
1.612,8.009486198,1.529262781,13.34737778,-0.856118918,0.860307694,-0.866154552
1.614,8.008901596,1.536627412,13.17670918,-0.846013427,0.860255361,-0.858335495
1.616,7.969809055,1.484749913,12.9633379,-0.835907996,0.858963788,-0.85072583
1.618,7.925430298,1.417702675,12.84165573,-0.825802505,0.856537759,-0.843535066
1.62,7.868141651,1.338885546,12.76271343,-0.815051317,0.853657961,-0.835541487
1.622,7.800050735,1.234948397,12.71220493,-0.803409934,0.850272059,-0.82693702
1.624,7.706044197,1.11803484,12.6697607,-0.79110539,0.847322464,-0.818053246
1.626,7.652424335,1.054253221,12.65895844,-0.778207421,0.844233215,-0.809710622
1.628,7.523797989,0.904902875,12.65862274,-0.765065074,0.840759993,-0.801263213
1.63,7.346531391,0.683075309,12.67789173,-0.752132177,0.837443888,-0.791838408
1.632,7.234396458,0.534299612,12.70080853,-0.739932358,0.833900869,-0.781680584
1.634,7.178525448,0.453394771,12.71438885,-0.72897166,0.830549836,-0.769969463
1.636,7.053682327,0.285867661,12.74650002,-0.71849972,0.827617645,-0.756687522
1.638,6.943520069,0.09468589,12.77988434,-0.708882928,0.824842572,-0.743388057
1.64,6.784459114,-0.165841565,12.84439468,-0.700854421,0.822451472,-0.728500426
1.642,6.730148792,-0.250625044,12.86665058,-0.694431603,0.821788251,-0.711396217
1.644,6.631009579,-0.43287167,12.91941929,-0.689300358,0.823411405,-0.694326878
1.646,6.534609795,-0.616478205,12.98083496,-0.686263442,0.825662911,-0.677920759
1.648,6.424821377,-0.853034914,13.06407642,-0.686595082,0.827827096,-0.662701488
1.65,6.391312122,-0.999406815,13.11908627,-0.687694609,0.830305457,-0.649262488
1.652,6.351012707,-1.111235261,13.16953659,-0.688130975,0.834459364,-0.637795687
1.654,6.335660934,-1.257511377,13.23171902,-0.68893379,0.840882182,-0.628388345
1.656,6.331332684,-1.325975895,13.26886749,-0.691167831,0.849504113,-0.62077868
1.658,6.312417984,-1.441769123,13.30903244,-0.694588661,0.861843586,-0.613570511
1.66,6.31269598,-1.593532681,13.35098839,-0.69882983,0.876975596,-0.607165158
1.662,6.317857742,-1.678076744,13.37971878,-0.704030931,0.892910421,-0.60234803
1.664,6.325595856,-1.733488321,13.35856342,-0.709930122,0.909176886,-0.59880501
1.666,6.330374718,-1.748533368,13.34826851,-0.716126025,0.925914645,-0.596728087
1.668,6.344959736,-1.765158653,13.34778023,-0.722426653,0.943769336,-0.594633699
1.67,6.381983757,-1.782195807,13.31434727,-0.728465498,0.963020325,-0.592504382
1.672,6.387337208,-1.789732814,13.2651701,-0.734399617,0.983178854,-0.591334999
1.674,6.389884949,-1.778824806,13.22620201,-0.739653111,1.003058195,-0.590532124
1.676,6.38898468,-1.772111416,13.20199203,-0.743684769,1.022518635,-0.589589655
1.678,6.365645885,-1.737807393,13.15482616,-0.748170316,1.04084456,-0.58824575
1.68,6.343964577,-1.681371212,13.07643032,-0.751887858,1.058105826,-0.586116493
1.682,6.329398155,-1.656835437,13.04454994,-0.755291224,1.074895978,-0.583358824
1.684,6.298742771,-1.60302341,12.99077511,-0.759200752,1.090272307,-0.58004272
1.686,6.272013664,-1.535937905,12.94355297,-0.762691438,1.103152752,-0.576150656
1.688,6.241549969,-1.444929481,12.89273834,-0.766635895,1.114078522,-0.572677434
1.69,6.234434128,-1.347159743,12.83830357,-0.770458162,1.123573184,-0.569047153
1.692,6.24796629,-1.253747702,12.77404308,-0.773268104,1.130903482,-0.564736188
1.694,6.281168938,-1.161819935,12.70804882,-0.77630502,1.135790467,-0.56046015
1.696,6.318240643,-1.101457238,12.63680744,-0.779760718,1.13778019,-0.555555761
1.698,6.362351418,-1.07502532,12.5749321,-0.783059418,1.137012243,-0.549464524
1.7,6.41005373,-1.067172408,12.53345394,-0.786602438,1.134167314,-0.542238891
1.702,6.46908474,-1.080311656,12.50515556,-0.790267646,1.128913879,-0.5339486
1.704,6.528595448,-1.11401248,12.4932127,-0.794264436,1.118878245,-0.525518656
1.706,6.600124359,-1.157232523,12.49423695,-0.7990641,1.106591105,-0.51576227
1.708,6.674785137,-1.193844676,12.50350761,-0.801647186,1.096852183,-0.503283143
1.71,6.760593891,-1.24219799,12.52919197,-0.80269438,1.085629702,-0.489669561
1.712,6.85154438,-1.310011387,12.55041504,-0.805643976,1.069066525,-0.476247996
1.714,6.948385239,-1.377355456,12.58181763,-0.810007274,1.047808409,-0.462878764
1.716,7.040839672,-1.460434318,12.62307453,-0.813986659,1.02525878,-0.448287815
1.718,7.135717392,-1.573325634,12.68393421,-0.816866458,1.003145456,-0.432248235
1.72,7.219073772,-1.69043088,12.77503872,-0.819624066,0.979618371,-0.414986938
1.722,7.272042751,-1.7843889,12.86973476,-0.82136941,0.954572916,-0.39755109
1.724,7.409499168,-1.991094708,12.97550106,-0.822399139,0.928916574,-0.380342156
1.726,7.469564438,-2.08798337,13.03686905,-0.823777974,0.902684271,-0.361981273
1.728,7.487932682,-2.124145269,13.04733562,-0.824964762,0.875910938,-0.342520863
1.73,7.530961514,-2.216800928,13.04754734,-0.826395929,0.850184798,-0.321960896
1.732,7.57801199,-2.390524149,13.04525757,-0.827914357,0.825191677,-0.300667882
1.734,7.595911026,-2.501423597,12.9970293,-0.829485178,0.800495267,-0.279043227
1.736,7.596792698,-2.555427313,12.98353481,-0.831073403,0.778765917,-0.256982267
1.738,7.58301115,-2.664564371,12.95467091,-0.833289981,0.760457397,-0.235078394
1.74,7.550680161,-2.768252611,12.89800453,-0.836414158,0.744784355,-0.213837743
1.742,7.468530178,-2.904875278,12.81253242,-0.839573205,0.732427418,-0.193522111
1.744,7.397221088,-2.977793217,12.75092506,-0.843378007,0.722653568,-0.173887149
1.746,7.348714828,-3.014175653,12.71901512,-0.84809041,0.71520102,-0.155159771
1.748,7.249307632,-3.076137543,12.6499939,-0.853169322,0.710907519,-0.138072997
1.75,7.135343552,-3.105605125,12.58371353,-0.858387828,0.71041882,-0.121963605
1.752,6.978600025,-3.149582148,12.48259163,-0.86367619,0.712425947,-0.106569804
1.754,6.921981812,-3.165604115,12.4561882,-0.868981957,0.716405273,-0.092083573
1.756,6.813160419,-3.174012423,12.40754795,-0.873659432,0.723386586,-0.079255402
1.758,6.709367275,-3.188176632,12.36305428,-0.877464294,0.733806253,-0.068975411
1.76,6.608417988,-3.217222929,12.32427692,-0.881216765,0.747838676,-0.059742618
1.762,6.457688332,-3.254572392,12.24257851,-0.884323418,0.765536308,-0.050614547
1.764,6.407851219,-3.261716843,12.22370243,-0.886539996,0.78632319,-0.041538835
1.766,6.30244875,-3.266543388,12.18129635,-0.888390064,0.809920013,-0.033108898
1.768,6.197716713,-3.253949881,12.12974453,-0.890083015,0.835628748,-0.026529005
1.77,6.093961239,-3.227805138,12.06084824,-0.891409457,0.862506807,-0.020053834
1.772,5.962002754,-3.227814913,11.95544624,-0.89257884,0.889227808,-0.013002703
1.774,5.926300526,-3.226732731,11.92145824,-0.893992543,0.91558224,-0.006649705
1.776,5.870409966,-3.229385614,11.85896015,-0.894900143,0.942407966,-0.000610865
1.778,5.81292057,-3.244497538,11.80319405,-0.896209121,0.968779922,0.005951573
1.78,5.724162579,-3.275028467,11.77435875,-0.898635149,0.993406475,0.013351769
1.782,5.64517355,-3.299679279,11.7824316,-0.901200771,1.016060829,0.021729348
1.784,5.587003708,-3.326379299,11.77436829,-0.903818727,1.036952496,0.030822514
1.786,5.5281353,-3.339844227,11.77666569,-0.907099962,1.05461514,0.040526547
1.788,5.509881973,-3.344987154,11.77517319,-0.910328805,1.070008993,0.052045718
1.79,5.485681057,-3.342027903,11.76285648,-0.912266135,1.082906961,0.064943701
1.792,5.457372189,-3.34091711,11.74482346,-0.913697302,1.091005325,0.078400187
1.794,5.440804005,-3.335400581,11.72502804,-0.914273262,1.094618201,0.092397727
1.796,5.411432266,-3.326044083,11.72052765,-0.912929356,1.093553543,0.107250482
1.798,5.385890484,-3.317444086,11.7224617,-0.911114216,1.087759018,0.12372639
1.8,5.367953777,-3.330832481,11.73006535,-0.909438729,1.076868176,0.141144782
1.802,5.330201626,-3.348195314,11.72168541,-0.906541467,1.060130477,0.158982039
1.804,5.321678162,-3.355272532,11.73074532,-0.902213037,1.039744973,0.177604705
1.806,5.311028957,-3.380162716,11.74580956,-0.897291243,1.014088631,0.196227372
1.808,5.303233624,-3.404870749,11.75412178,-0.892439187,0.983126521,0.214850023
1.81,5.29234457,-3.44069767,11.75588512,-0.885737121,0.953159213,0.235375106
1.812,5.311670303,-3.487030268,11.75633526,-0.87575388,0.922982454,0.257628053
1.814,5.266132832,-3.55284214,11.76254082,-0.86631161,0.890798569,0.279305041
1.816,5.209294319,-3.6309793,11.81145859,-0.857742071,0.859400094,0.301069289
1.818,5.182115555,-3.700755835,11.82839108,-0.846676648,0.830200791,0.324439257
1.82,5.129213333,-3.778270483,11.81663132,-0.833010733,0.802537322,0.348489881
1.822,5.07267189,-3.854042292,11.81120014,-0.819571734,0.774228036,0.372784883
1.824,5.01750946,-3.912891626,11.78989124,-0.80714494,0.74661696,0.396887869
1.826,4.946689129,-3.962374926,11.75000477,-0.793566287,0.72179836,0.419943661
1.828,4.871032238,-4.015334606,11.71112347,-0.77857393,0.701273263,0.440695643
1.83,4.796246529,-4.052742004,11.69635582,-0.762377262,0.685984194,0.458620161
1.832,4.722074032,-4.071703911,11.67016315,-0.744417846,0.675651848,0.474432856
1.834,4.653896809,-4.087017536,11.63346481,-0.724782884,0.669246495,0.4871912
1.836,4.595181465,-4.116083145,11.59531021,-0.704502165,0.666942656,0.496790528
1.838,4.547948837,-4.145301819,11.55837345,-0.684553027,0.669176698,0.504487395
1.84,4.510503292,-4.172614574,11.52507401,-0.665703476,0.677013218,0.510788083
1.842,4.47089386,-4.206305981,11.49526215,-0.647936046,0.690312624,0.516181111
1.844,4.436666489,-4.255961895,11.46775723,-0.630604923,0.707713544,0.520596802
1.846,4.383869648,-4.312081337,11.43985939,-0.614390791,0.729320705,0.524279475
1.848,4.333715916,-4.363307953,11.41187572,-0.599904597,0.752952516,0.527037084
1.85,4.269589424,-4.409458637,11.37429714,-0.586116493,0.777404547,0.529114008
1.852,4.187353611,-4.430777073,11.32185459,-0.573864281,0.802833974,0.530911684
1.854,4.118726254,-4.410694122,11.26633835,-0.563828588,0.829275727,0.531313121
1.856,4.064894676,-4.3633461,11.20923138,-0.555328846,0.856450498,0.531173527
1.858,4.031375885,-4.263527393,11.15352249,-0.549028218,0.884881914,0.531417847
1.86,4.030485153,-4.114904881,11.11706352,-0.544891775,0.914116204,0.532482505
1.862,4.055634022,-3.94300127,11.11690998,-0.542884648,0.94275707,0.534803808
1.864,4.118400574,-3.780042171,11.14242268,-0.541750193,0.970821917,0.537002921
1.866,4.22484684,-3.625874758,11.18303776,-0.540982246,0.998031616,0.540109575
1.868,4.344977856,-3.492479563,11.2303772,-0.541296423,1.023303986,0.545171022
1.87,4.470922947,-3.392842293,11.28127766,-0.542361081,1.045591831,0.550372124
1.872,4.607191086,-3.326225996,11.32646084,-0.543129027,1.065401316,0.555660486
1.874,4.741093636,-3.293607473,11.34170723,-0.543739855,1.083552718,0.561908722
1.876,4.85406208,-3.253739357,11.33046341,-0.544944167,1.097899318,0.568244278
1.878,4.956524372,-3.210241556,11.31508255,-0.545746982,1.106887817,0.573654831
1.88,5.04738903,-3.18987155,11.28904438,-0.546078622,1.113066316,0.580287039
1.882,5.129778385,-3.176665068,11.25652122,-0.545886636,1.116225362,0.588664651
1.884,5.176158905,-3.186309099,11.23886108,-0.545188487,1.114968657,0.596815348
1.886,5.20341444,-3.233503342,11.24008751,-0.545223415,1.110989332,0.604861319
1.888,5.205741882,-3.295752764,11.25264263,-0.545537591,1.105596304,0.611615717
1.89,5.194910049,-3.368354559,11.26183605,-0.545048893,1.097393274,0.617200792
1.892,5.167109013,-3.452525139,11.26904774,-0.543582797,1.081737638,0.625159502
1.894,5.118468285,-3.540152788,11.27233315,-0.541715264,1.060863495,0.634078085
1.896,5.081424713,-3.610657215,11.26822376,-0.540022314,1.039099216,0.640867472
1.898,5.028293133,-3.643774033,11.24276829,-0.538067579,1.016357541,0.647098243
1.9,4.970228672,-3.657641172,11.1990509,-0.53600806,0.996670246,0.652788043
1.902,4.900902271,-3.667514801,11.11811733,-0.532325447,0.973509729,0.659839153
1.904,4.804693222,-3.67214036,11.01495647,-0.528293729,0.94514817,0.669333756
1.906,4.705028057,-3.67795372,10.8929472,-0.524139822,0.918130457,0.678566575
1.908,4.596397877,-3.682349443,10.77177238,-0.518973649,0.894830287,0.686752141
1.91,4.472177029,-3.688449621,10.63739967,-0.513074458,0.873345316,0.6945014
1.912,4.313220978,-3.720216036,10.50264454,-0.502480269,0.844093561,0.701116204
1.914,4.134623528,-3.764623642,10.35831261,-0.488378018,0.812922001,0.705078125
1.916,3.950825453,-3.811866045,10.21188259,-0.472216278,0.790145457,0.707015395
1.918,3.772208452,-3.857949495,10.06018639,-0.45523423,0.774873853,0.707155049
1.92,3.661490917,-3.883423805,9.895810127,-0.435372382,0.761382401,0.705339909
1.922,3.501654148,-3.907768011,9.683167458,-0.404235721,0.74422586,0.700173736
1.924,3.203145027,-3.961369514,9.59770298,-0.366641313,0.726510763,0.692703724
1.926,3.031241179,-3.972804308,9.518781662,-0.329867214,0.711396217,0.68460542
1.928,2.883145571,-3.961034536,9.344444275,-0.298172057,0.698952019,0.677205205
1.93,2.747720003,-3.944102526,9.221966743,-0.268850505,0.688497484,0.670415878
1.932,2.583918095,-3.920419216,9.14851284,-0.233559966,0.67730993,0.660694361
1.934,2.425240278,-3.909721613,9.05004406,-0.199316606,0.667396426,0.649803519
1.936,2.299946785,-3.929315805,8.975364685,-0.171792761,0.660519838,0.640326381
1.938,2.184795141,-3.95453167,8.915163994,-0.151442215,0.656139076,0.632350266
1.94,2.075830221,-3.985120058,8.88137722,-0.136222944,0.65467298,0.624688268
1.942,1.979803681,-4.013266087,8.862051964,-0.121806525,0.656592846,0.616520107
1.944,1.903534055,-4.040550709,8.859915733,-0.109327421,0.65990901,0.608788312
1.946,1.862008929,-4.062663555,8.866820335,-0.100443699,0.661881208,0.602470219
1.948,1.856962085,-4.044036388,8.885255814,-0.093671821,0.663644016,0.596745551
1.95,1.873596907,-4.001161098,8.908920288,-0.086498514,0.664342105,0.590636849
1.952,1.931699395,-3.955431938,8.953825951,-0.079796456,0.664638817,0.584981978
1.954,2.023301601,-3.90621686,9.018842697,-0.073914692,0.667274296,0.578890801
1.956,2.131471634,-3.840836048,9.0989151,-0.068992868,0.669298887,0.574213326
1.958,2.26513505,-3.776029587,9.187959671,-0.065729097,0.668548346,0.572310925
1.96,2.416439056,-3.709509134,9.307660103,-0.063442715,0.666035116,0.571525514
1.962,2.595745564,-3.665800571,9.456158638,-0.061261058,0.662160456,0.571211338
1.964,2.75566864,-3.649012566,9.606973648,-0.058782689,0.657430649,0.572031677
1.966,2.929363251,-3.630098104,9.767624855,-0.05651376,0.653625786,0.573305726
1.968,3.136538267,-3.654653072,9.941817284,-0.05560619,0.649855912,0.574143529
1.97,3.350455284,-3.67602849,10.08538246,-0.05490806,0.644532621,0.575749219
1.972,3.583698511,-3.686850309,10.21474743,-0.053040557,0.637952745,0.578611553
1.974,3.829267025,-3.692807198,10.32448769,-0.050405107,0.628964305,0.582294226
1.976,4.055020809,-3.70394516,10.40112114,-0.047734756,0.617724359,0.586011767
1.978,4.251163483,-3.72221756,10.46162701,-0.045396015,0.607775986,0.58878684
1.98,4.443676949,-3.733441353,10.49805737,-0.042236969,0.598368704,0.59117794
1.982,4.612324238,-3.716423512,10.5353775,-0.038100537,0.587914169,0.594040275
1.984,4.760506153,-3.695412159,10.54691792,-0.033265974,0.57765162,0.596797884
1.986,4.888519764,-3.67007184,10.5516777,-0.028134707,0.567476332,0.600428164
1.988,4.973427296,-3.640556097,10.53491783,-0.023841197,0.558924258,0.604442418
1.99,5.023054123,-3.621182203,10.50487614,-0.019565141,0.55101788,0.60733968
1.992,5.059388638,-3.613779306,10.41061115,-0.01436406,0.541802585,0.610725582
1.994,5.056381702,-3.613530159,10.36459446,-0.006876597,0.529218733,0.615577638
1.996,5.014502525,-3.628834009,10.26752472,0.000890118,0.517158508,0.62008059
1.998,4.943241119,-3.662170887,10.15014172,0.0084823,0.506878495,0.623483956
2,4.835377216,-3.696235657,10.01508045,0.017872171,0.496057481,0.627079368
2.002,4.681114197,-3.748075008,9.867386818,0.027698375,0.485986918,0.6304304
2.004,4.499183655,-3.802164793,9.708621979,0.039915681,0.473350734,0.634008288
2.006,4.296175003,-3.886785507,9.538374901,0.051818825,0.460958898,0.637673497
2.008,4.0786376,-3.954292297,9.365571022,0.061714843,0.450539291,0.640745282
2.01,3.834524632,-4.006179333,9.201855659,0.072378807,0.438723415,0.643886864
2.012,3.568711042,-4.063065529,9.040888786,0.083339475,0.425703257,0.646749198
2.014,3.299037695,-4.122460842,8.889852524,0.095068082,0.412211865,0.649803519
2.016,3.032314062,-4.183378696,8.735704422,0.107425012,0.398825198,0.653259277
2.018,2.760437965,-4.24352169,8.590088844,0.119380519,0.38547343,0.655615449
2.02,2.483850002,-4.292975903,8.459711075,0.131196395,0.371214092,0.657203734
2.022,2.262108803,-4.319072723,8.337721825,0.142959923,0.354668349,0.659106135
2.024,2.109847069,-4.320480347,8.202113152,0.155945167,0.335312665,0.661462307
2.026,1.810935855,-4.360358238,8.16187191,0.167551607,0.319220722,0.664010525
2.028,1.639166236,-4.36861372,8.208797455,0.176382974,0.306043476,0.665982723
2.03,1.581389427,-4.348282337,8.156720161,0.185964838,0.290265709,0.668059647
2.032,1.505550623,-4.353185654,8.124761581,0.193975896,0.273423284,0.671114028
2.034,1.383235693,-4.41048336,8.249835014,0.200067088,0.258046925,0.675512254
2.036,1.310748816,-4.484186649,8.390776634,0.205390349,0.243578151,0.681393981
2.038,1.327671051,-4.592030525,8.47605896,0.208828643,0.228550866,0.688846529
2.04,1.421111941,-4.702460766,8.594130516,0.210224912,0.214535877,0.697241604
2.042,1.591703653,-4.801504612,8.737485886,0.210469261,0.201882228,0.705706418
2.044,1.826373696,-4.862230778,8.861898422,0.209317341,0.189472944,0.715794444
2.046,2.102856159,-4.889496326,8.976590157,0.206943691,0.179681644,0.725254118
2.048,2.406440973,-4.870715618,9.098818779,0.205041274,0.173503175,0.733212829
2.05,2.718568087,-4.816990376,9.211930275,0.202370927,0.168755889,0.742445588
2.052,3.0187819,-4.720513344,9.325358391,0.197815612,0.165265232,0.752830327
2.054,3.292850733,-4.613760948,9.440538406,0.192160755,0.162577421,0.765902817
2.056,3.547048092,-4.501165867,9.536306381,0.187343642,0.160849541,0.778486669
2.058,3.767065763,-4.385651112,9.616224289,0.183486462,0.16077973,0.789604425
2.06,3.955221176,-4.2824893,9.684689522,0.179384947,0.162647232,0.803601921
2.062,4.115814686,-4.174098969,9.745818138,0.175824463,0.165614292,0.818437219
2.064,4.26068306,-4.042169094,9.788492203,0.172490895,0.169663459,0.831754088
2.066,4.412446976,-3.903075457,9.816677094,0.169541284,0.174148947,0.842208624
2.068,4.547748089,-3.781066895,9.829403877,0.167411983,0.179454759,0.852156997
2.07,4.666451931,-3.685978651,9.825659752,0.166207701,0.186645508,0.863780916
2.072,4.755985737,-3.592317581,9.775409698,0.166050628,0.194324955,0.875142992
2.074,4.81681776,-3.499164104,9.706745148,0.165980816,0.20217894,0.886382937
2.076,4.848593712,-3.421563148,9.629603386,0.166574225,0.211690977,0.896959603
2.078,4.853535175,-3.357657194,9.540616035,0.167778507,0.222826183,0.906000435
2.08,4.821941376,-3.304735899,9.436238289,0.169523835,0.234292999,0.91409874
2.082,4.772391319,-3.255520582,9.326756477,0.172438532,0.247173533,0.920870602
2.084,4.68917799,-3.208843231,9.218414307,0.176470235,0.261258334,0.926473141
2.086,4.586916924,-3.165153742,9.102372169,0.180327416,0.275814384,0.93252939
2.088,4.460799694,-3.14155674,8.979482651,0.184411481,0.290911466,0.938795149
2.09,4.325240135,-3.127679586,8.853690147,0.189874366,0.305886418,0.944188237
2.092,4.157770634,-3.127689362,8.720256805,0.194307506,0.320494801,0.949214757
2.094,3.979862213,-3.118849754,8.583547592,0.199264243,0.333706945,0.954101682
2.096,3.778012037,-3.10553813,8.440805435,0.20570451,0.345714808,0.959250391
2.098,3.560398102,-3.083051682,8.287250519,0.211481541,0.356919825,0.965132177
2.1,3.341874599,-3.056064367,8.14118576,0.216351017,0.367479086,0.971956432
2.102,3.130380392,-3.038567543,8.008327484,0.220539808,0.377444893,0.97883302
2.104,2.904070854,-3.013955116,7.876827717,0.223821029,0.385613054,0.984784603
2.106,2.687280655,-2.997320414,7.747952461,0.225479081,0.391145736,0.990369618
2.108,2.484721661,-2.971146822,7.636602879,0.226788089,0.394357145,0.996111751
2.11,2.291509628,-2.945088387,7.526154041,0.226997525,0.396591157,1.002552032
2.112,2.100500345,-2.918474436,7.439608574,0.224571511,0.397830337,1.009899855
2.114,1.932005882,-2.921452999,7.376918316,0.221360102,0.397062391,1.017945886
2.116,1.760035157,-2.95902276,7.328057766,0.21879448,0.395177454,1.026271105
2.118,1.588639021,-3.046851635,7.303646564,0.21491985,0.392838717,1.03503263
2.12,1.424779892,-3.175362825,7.316402912,0.209544227,0.388405561,1.043637037
2.122,1.284077406,-3.342430115,7.348293304,0.204517677,0.382820517,1.052189231
2.124,1.182821751,-3.529752493,7.398609638,0.200259075,0.376746774,1.060409665
2.126,1.109750867,-3.725483179,7.456549644,0.196314633,0.368596077,1.068490505
2.128,1.12347436,-3.895816088,7.515973568,0.192509815,0.358350992,1.076519132
2.13,1.235350609,-4.006007195,7.533499718,0.188739911,0.346901655,1.084198475
2.132,1.229566336,-4.151516914,7.620427608,0.184690744,0.334352732,1.091755748
2.134,1.305232525,-4.244038582,7.750059605,0.179245308,0.318522573,1.099243283
2.136,1.391260982,-4.305492878,7.840426445,0.17420131,0.302919358,1.105439186
2.138,1.479798555,-4.350570679,7.969875813,0.170867726,0.289934099,1.110186458
2.14,1.573766232,-4.369963646,8.139442444,0.168267191,0.277402639,1.114951253
2.142,1.653876185,-4.337574959,8.285422325,0.166242614,0.264399916,1.119105101
2.144,1.728402972,-4.27023077,8.388525963,0.163537353,0.250908524,1.1233114
2.146,1.777675629,-4.167117596,8.451771736,0.16053538,0.238778487,1.127238393
2.148,1.826622725,-4.039640903,8.432273865,0.158057019,0.227852732,1.130414844
2.15,1.876805186,-3.889284849,8.357956886,0.155788094,0.217398211,1.132648826
2.152,1.935836554,-3.699223518,8.240296364,0.153903127,0.207781449,1.133259773
2.154,1.999388337,-3.494902372,8.089537621,0.152192712,0.198496297,1.132858276
2.156,2.033644438,-3.301537037,7.917490959,0.149923787,0.189996541,1.131444573
2.158,2.009367228,-3.131874561,7.75061512,0.146153867,0.183678448,1.129594564
2.16,1.991832137,-2.963016033,7.609213352,0.1421047,0.178285375,1.127273202
2.162,1.989878535,-2.778959513,7.486563683,0.139190003,0.172281444,1.124742508
2.164,2.003401041,-2.620089769,7.394827366,0.136100769,0.1666964,1.122141957
2.166,2.005814314,-2.514400244,7.316441059,0.132645026,0.161582574,1.11856401
2.168,1.972506285,-2.429473162,7.267618656,0.129974663,0.156014979,1.114881396
2.17,1.874640703,-2.371610165,7.236397743,0.127932638,0.150290296,1.110867143
2.172,1.760772586,-2.371284485,7.210885048,0.126169846,0.146380767,1.106399059
2.174,1.622588754,-2.381378412,7.200666904,0.124494337,0.144792512,1.102053285
2.176,1.505952835,-2.405377865,7.168632507,0.123185337,0.144129291,1.097113967
2.178,1.424099803,-2.430076361,7.128486156,0.123272605,0.143867493,1.091633677
2.18,1.341978788,-2.448952436,7.077882767,0.123639122,0.144076929,1.087200522
2.182,1.264636517,-2.461919308,7.006200314,0.123464592,0.144792512,1.083186269
2.184,1.203479052,-2.474838495,6.934221268,0.124651417,0.147619948,1.077758312
2.186,1.151754618,-2.483112812,6.884661198,0.126396745,0.151285142,1.07271421
2.188,1.098325729,-2.471898556,6.836652279,0.12742649,0.154356912,1.069398165
2.19,1.061905026,-2.453874826,6.789630413,0.127845362,0.158126831,1.067094326
2.192,1.038652539,-2.422721386,6.742742062,0.128019899,0.162193447,1.066169262
2.194,1.039945483,-2.374387264,6.689581394,0.129346356,0.165736467,1.066727757
2.196,1.064107776,-2.32703948,6.642118454,0.131161496,0.168127567,1.067286253
2.198,1.090692997,-2.294459343,6.607038975,0.132837012,0.169733271,1.067809939
2.2,1.104722977,-2.303145409,6.577791691,0.13573426,0.170710653,1.06929338
2.202,1.099359989,-2.343272209,6.566940784,0.139434353,0.171426237,1.071475029
2.204,1.072669387,-2.423238516,6.57352972,0.14346607,0.171077177,1.074267626
2.206,1.041171312,-2.508136988,6.578844547,0.147323236,0.169680908,1.076658726
2.208,1.005172014,-2.598369598,6.582560539,0.152035624,0.167848319,1.078264356
2.21,0.965466619,-2.647958279,6.560266018,0.156800374,0.1664695,1.079538465
2.212,0.934236646,-2.681486845,6.541696072,0.160011783,0.165579379,1.081964493
2.214,0.91293788,-2.704432964,6.516059399,0.162891582,0.163973689,1.085472584
2.216,0.879754186,-2.718759775,6.4838624,0.165649205,0.161408052,1.087532163
2.218,0.8483423,-2.720617771,6.455620289,0.169279486,0.157533422,1.088998199
2.22,0.794539809,-2.737242937,6.428412437,0.172979578,0.152489409,1.090551496
2.222,0.743706107,-2.747011185,6.39842701,0.175737202,0.146956727,1.091493964
2.224,0.687700927,-2.755544186,6.364151955,0.178442463,0.140917882,1.092192173
2.226,0.633908033,-2.774247885,6.333333969,0.180501953,0.135297924,1.092157245
2.228,0.591291189,-2.778039932,6.300571918,0.182910502,0.130812421,1.092157245
2.23,0.554774821,-2.772294044,6.249039173,0.186104462,0.127077416,1.092768073
2.232,0.518823504,-2.73068285,6.207581043,0.188338473,0.123988189,1.092401624
2.234,0.496739388,-2.685547352,6.156814098,0.190520138,0.121160753,1.091616154
2.236,0.477968842,-2.630451918,6.104831219,0.193609372,0.119048908,1.091302037
2.238,0.468372881,-2.578440428,6.063737392,0.196454257,0.11787954,1.090219855
2.24,0.434317768,-2.508797884,6.058029175,0.198234499,0.11803662,1.088195324
2.242,0.378829747,-2.416879654,6.030122757,0.199910015,0.120305546,1.085804224
2.244,0.357061684,-2.357168198,6.018295288,0.20217894,0.123132981,1.083884358
2.246,0.317432821,-2.309858561,6.045837879,0.205303073,0.125855699,1.081510663
2.248,0.264683783,-2.256985188,6.041107655,0.208165422,0.13074261,1.0780375
2.25,0.218801305,-2.227402449,6.038377762,0.210573971,0.136537105,1.074721336
2.252,0.198661283,-2.193261147,6.045713902,0.21345377,0.142349049,1.072731733
2.254,0.200863957,-2.16057539,6.040523052,0.21652554,0.149452537,1.071928859
2.256,0.201677978,-2.109014034,6.035245895,0.219667137,0.158353716,1.071597219
2.258,0.226290375,-2.054157972,6.036577225,0.222843632,0.169227123,1.072417498
2.26,0.279202253,-1.999110579,6.03083086,0.226665914,0.180920824,1.074651599
2.262,0.32792902,-1.923472881,6.030811787,0.231046692,0.192928702,1.077444077
2.264,0.373782784,-1.863933921,6.03784132,0.235689268,0.206036121,1.080166817
2.266,0.427202195,-1.825722456,6.053566456,0.241361588,0.221464828,1.083482981
2.268,0.464436829,-1.791236281,6.063401699,0.248081103,0.237853468,1.086711764
2.27,0.499938041,-1.762678385,6.092994213,0.254608631,0.253666163,1.089940667
2.272,0.526417911,-1.750180483,6.131617546,0.260734737,0.270211875,1.095036983
2.274,0.539202929,-1.737079501,6.177212715,0.267332077,0.287996769,1.100883842
2.276,0.576351404,-1.735327005,6.233160496,0.274749726,0.306270391,1.107690692
2.278,0.611871779,-1.734532118,6.301883698,0.28251645,0.324142546,1.115841389
2.28,0.637326896,-1.722819686,6.363816738,0.291033655,0.341508567,1.124201417
2.282,0.667206526,-1.713779211,6.435259819,0.299865007,0.35772267,1.132963061
2.284,0.694730282,-1.72514689,6.504049778,0.308207691,0.373168856,1.142527461
2.286,0.72502172,-1.730213046,6.587329865,0.316009313,0.387655079,1.153051734
2.288,0.744951069,-1.732329488,6.668799877,0.323287338,0.399872392,1.164605856
2.29,0.78034693,-1.737635016,6.740616322,0.330355912,0.409890562,1.176247239
2.292,0.815350175,-1.744424939,6.80268383,0.336708903,0.417133689,1.187609315
2.294,0.860255778,-1.728968024,6.846076012,0.343707681,0.421339929,1.200751662
2.296,0.904366553,-1.722925067,6.879317284,0.349711627,0.422736198,1.213056207
2.298,0.937320352,-1.711269975,6.907473087,0.353743345,0.422038078,1.222795129
2.3,0.952509224,-1.707420111,6.924826145,0.357583046,0.419228077,1.232132673
2.302,0.953189135,-1.715091228,6.926156998,0.360742092,0.413677931,1.24098146
2.304,0.918913782,-1.729504228,6.929719925,0.363586992,0.40571925,1.248678327
2.306,0.869985819,-1.732530475,6.923207283,0.365698844,0.396503896,1.254979014
2.308,0.805150867,-1.737587094,6.905002594,0.367513984,0.386101723,1.260057926
2.31,0.737548232,-1.731199384,6.880993366,0.368247032,0.373360843,1.263391495
2.312,0.659813225,-1.72903502,6.844333172,0.366641313,0.359642535,1.265066981
2.314,0.585909069,-1.710120797,6.78830862,0.364110589,0.346814364,1.264159441
2.316,0.501154304,-1.692422867,6.720074177,0.360550106,0.333375335,1.26065135
2.318,0.39067626,-1.664477825,6.648908615,0.356256604,0.31937781,1.256061077
2.32,0.294055849,-1.625145793,6.571968555,0.351980537,0.30548498,1.249760509
2.322,0.197014064,-1.591780186,6.491408825,0.346465319,0.290667146,1.242150784
2.324,0.10702081,-1.562494397,6.412198544,0.339798152,0.275482774,1.233057618
2.326,0.020456059,-1.542047858,6.307323456,0.33360222,0.260158777,1.221782804
2.328,-0.057920527,-1.530938745,6.204602718,0.328558236,0.24474752,1.209617853
2.33,-0.134171069,-1.546261549,6.104064941,0.32461378,0.229650423,1.197086453
2.332,-0.192627892,-1.570088744,6.017911911,0.321419835,0.214343891,1.184729457
2.334,-0.239477634,-1.59339869,5.929278851,0.31949997,0.199281693,1.171499848
2.336,-0.293557853,-1.624379635,5.840377331,0.319028735,0.183992609,1.157589674
2.338,-0.334680677,-1.644797325,5.768436432,0.319779217,0.168302104,1.144656777
2.34,-0.348069042,-1.673939705,5.713101387,0.322309941,0.152768672,1.132456899
2.342,-0.360739172,-1.691359878,5.668138504,0.327109605,0.136973441,1.120867848
2.344,-0.361658543,-1.718040824,5.631584167,0.333183348,0.120759331,1.110151529
2.346,-0.365546733,-1.744578123,5.586956024,0.339431644,0.104370691,1.100412607
2.348,-0.348930955,-1.761050344,5.541006565,0.347355425,0.087283917,1.091406703
2.35,-0.315038621,-1.778815269,5.493438244,0.356884927,0.068643801,1.084268332
2.352,-0.278838307,-1.795124531,5.46776247,0.36580357,0.050021138,1.078526258
2.354,-0.223398179,-1.800554514,5.445458412,0.374181151,0.032009337,1.073028445
2.356,-0.158304617,-1.790968299,5.423546791,0.382645994,0.013962634,1.068577886
2.358,-0.10791146,-1.779705882,5.409516811,0.391442448,-0.003473205,1.064877748
2.36,-0.052586246,-1.760073543,5.415961742,0.399767667,-0.019739674,1.062731028
2.362,0.026939558,-1.741915822,5.412092686,0.406312645,-0.034557518,1.062172413
2.364,0.096907705,-1.716508508,5.425404549,0.412124604,-0.048799407,1.061945558
2.366,0.160737127,-1.663079619,5.447191715,0.417971462,-0.062796943,1.062172413
2.368,0.222833142,-1.599748135,5.477234364,0.423189968,-0.075136423,1.063219666
2.37,0.267690927,-1.529981136,5.52675581,0.426575929,-0.085835293,1.06426692
2.372,0.296699077,-1.472108364,5.56688261,0.428583056,-0.094928458,1.065645695
2.374,0.29399839,-1.403279901,5.60834074,0.428775042,-0.102084309,1.068420768
2.376,0.283119142,-1.333359599,5.665332317,0.426959902,-0.107215576,1.07144022
2.378,0.277449668,-1.254609585,5.720025539,0.424638599,-0.110566609,1.074250102
2.38,0.27646327,-1.199303508,5.77809,0.421165407,-0.112573735,1.077287078
2.382,0.272373974,-1.129134297,5.841698647,0.415650159,-0.112434112,1.079468727
2.384,0.283933163,-1.060631394,5.917192936,0.408040524,-0.11047934,1.080672979
2.386,0.296775669,-1.006282926,5.986241817,0.399261504,-0.107791536,1.08178997
2.388,0.302991033,-0.944263578,6.063928604,0.389382958,-0.103236228,1.082557917
2.39,0.300386101,-0.892960608,6.12953949,0.378404826,-0.096324719,1.0822438
2.392,0.298997492,-0.856827319,6.181761742,0.367636144,-0.088767447,1.080533385
2.394,0.301602393,-0.815666199,6.224273205,0.356605679,-0.080651663,1.077321887
2.396,0.306544006,-0.780030906,6.263988495,0.344877064,-0.072291538,1.072853923
2.398,0.29788658,-0.757132769,6.299201965,0.332520127,-0.063529983,1.068193913
2.4,0.276080191,-0.753244579,6.325854301,0.319901407,-0.05396558,1.063132405
2.402,0.244074494,-0.758013845,6.336657047,0.307841182,-0.045012042,1.056971431
2.404,0.215056777,-0.772446096,6.323029518,0.295972943,-0.035691984,1.050374031
2.406,0.151054978,-0.787376344,6.312417984,0.283249497,-0.024644049,1.042624831
2.408,0.093172751,-0.812639952,6.301615715,0.270508587,-0.01319469,1.033479214
2.41,0.021126436,-0.83026129,6.295045853,0.259006858,-0.001902409,1.022815347
2.412,-0.043718126,-0.854538441,6.307437897,0.247382969,0.009302605,1.010266423
2.414,-0.090826437,-0.875856459,6.318279266,0.235689268,0.020804325,0.997892022
2.416,-0.116837047,-0.873404801,6.32502079,0.224623874,0.032114059,0.984644949
2.418,-0.162556723,-0.859422684,6.337126255,0.213820279,0.042097341,0.969163895
2.42,-0.218695954,-0.816001415,6.313002586,0.202789798,0.051836278,0.952757776
2.422,-0.246143088,-0.789981186,6.28948164,0.190712124,0.062116269,0.935967743
2.424,-0.277286857,-0.764028072,6.251107216,0.178547189,0.071034901,0.919037998
2.426,-0.289468557,-0.731840372,6.207963943,0.167272359,0.078138389,0.90078187
2.428,-0.294017553,-0.719869375,6.184931755,0.155124858,0.084805548,0.881373823
2.43,-0.309503228,-0.644490361,6.106966972,0.141965076,0.091629788,0.862087905
2.432,-0.301544935,-0.577136636,6.067721367,0.129660517,0.098192222,0.842889309
2.434,-0.295166761,-0.539911628,6.052110672,0.117705002,0.103079148,0.823708117
2.436,-0.28472805,-0.460155964,6.010633945,0.104946651,0.105068818,0.804212809
2.438,-0.29185319,-0.38493976,5.965220928,0.091559969,0.105557516,0.784298599
2.44,-0.26194483,-0.283061683,5.913831711,0.077894047,0.104807019,0.764506578
2.442,-0.239745796,-0.219519556,5.88103056,0.063180916,0.102922067,0.744766891
2.444,-0.216349646,-0.173512593,5.852453709,0.049619712,0.100897484,0.725376308
2.446,-0.186163545,-0.126950145,5.832667828,0.037158061,0.097860612,0.706753612
2.448,-0.169969156,-0.097434431,5.825829983,0.022916174,0.09285152,0.688741803
2.45,-0.097367391,-0.012641385,5.83260107,0.008918633,0.085748024,0.671323419
2.452,-0.075139627,0.018626887,5.840846539,-0.003385939,0.078435093,0.653503656
2.454,-0.029688101,0.10774865,5.87610817,-0.014713125,0.070424035,0.635823429
2.456,0.014116213,0.170179859,5.904350758,-0.026581364,0.061156336,0.619155526
2.458,0.055478442,0.222938493,5.95877552,-0.038676497,0.052010812,0.602906525
2.46,0.086133793,0.288261861,6.012951374,-0.049602259,0.042935099,0.587146223
2.462,0.124517642,0.340963036,6.066456795,-0.060353484,0.033859387,0.571246266
2.464,0.1396873,0.414589524,6.120690346,-0.070092425,0.024504423,0.555311382
2.466,0.141391978,0.455836862,6.152772903,-0.07754498,0.01436406,0.539673269
2.468,0.158678114,0.535286009,6.220011711,-0.084037602,0.003926991,0.52384311
2.47,0.153391704,0.628985524,6.314046383,-0.090477869,-0.006300638,0.506983221
2.472,0.144255444,0.688438356,6.378622532,-0.096254908,-0.016772615,0.489058703
2.474,0.133136764,0.742920756,6.440929413,-0.100810215,-0.0286234,0.471675217
2.476,0.121845707,0.764842093,6.476698875,-0.104562677,-0.040386919,0.455129504
2.478,0.094005935,0.820071518,6.54576683,-0.107669361,-0.050858893,0.439229548
2.48,0.061071295,0.895718753,6.664911747,-0.109868474,-0.060789816,0.423608869
2.482,0.052088253,0.913914681,6.701925755,-0.110461891,-0.070842914,0.408424497
2.484,0.032283418,0.958916068,6.774978161,-0.110060461,-0.080930918,0.394339681
2.486,0.008322245,0.996466756,6.832764149,-0.109589227,-0.090408057,0.381040275
2.488,-0.044369347,1.020600319,6.88452673,-0.10939724,-0.098995075,0.368683338
2.49,-0.096811943,1.034888864,6.938607216,-0.108053334,-0.106587254,0.357338697
2.492,-0.158725992,1.043546438,6.975181103,-0.105609871,-0.113463856,0.346395493
2.494,-0.218437389,1.04501164,6.999975681,-0.104300879,-0.119432882,0.336272597
2.496,-0.280140758,1.036517024,7.006075859,-0.103463121,-0.124058001,0.326463848
2.498,-0.353719354,1.028520226,6.997552395,-0.102485731,-0.127531201,0.316480547
2.5,-0.423754543,1.034553766,6.971120834,-0.101770148,-0.129887402,0.307369947
2.502,-0.486990213,1.056091905,6.910882473,-0.101159282,-0.130533174,0.299865007
2.504,-0.565682828,1.087695479,6.838117599,-0.10091494,-0.13016665,0.293337494
2.506,-0.627127647,1.140999913,6.755699635,-0.101438537,-0.130323738,0.286897212
2.508,-0.672847271,1.194965243,6.658715248,-0.102922067,-0.130079389,0.281748503
2.51,-0.710790575,1.25856483,6.552192688,-0.105732046,-0.128718033,0.277437538
2.512,-0.750725865,1.381933212,6.362322807,-0.108768918,-0.127531201,0.273475647
2.514,-0.774476409,1.472510576,6.223085403,-0.111596353,-0.126414195,0.271241605
2.516,-0.775501072,1.574350476,6.077843666,-0.114633225,-0.125332087,0.269374102
2.518,-0.776841879,1.628804207,6.00790453,-0.118071526,-0.124249987,0.267035365
2.52,-0.782750726,1.760906577,5.872871399,-0.121998511,-0.123185337,0.265150428
2.522,-0.747785807,2.004463911,5.692386627,-0.126134947,-0.122749008,0.263422549
2.524,-0.736992717,2.094093323,5.628538609,-0.131283671,-0.122888632,0.262410253
2.526,-0.72029078,2.279615164,5.505926132,-0.137165427,-0.122312672,0.262951314
2.528,-0.71977365,2.474742651,5.402152538,-0.142715573,-0.120497532,0.264103234
2.53,-0.721420825,2.67606616,5.304890156,-0.148440257,-0.119764492,0.264888614
2.532,-0.7108289,2.992838383,5.203606129,-0.15393804,-0.119153626,0.265220225
2.534,-0.697268128,3.210212708,5.136300087,-0.159016952,-0.118263513,0.266302347
2.536,-0.67948401,3.315796852,5.112377167,-0.162647232,-0.117286123,0.267681152
2.538,-0.667694926,3.498723745,5.063171387,-0.164776534,-0.115610607,0.268885434
2.54,-0.65618366,3.660868406,5.039746761,-0.166574225,-0.114615768,0.270630747
2.542,-0.625882626,3.833815813,5.037659168,-0.168581352,-0.113900185,0.272288829
2.544,-0.640056312,3.914768696,5.052340508,-0.170012519,-0.112661004,0.273597807
2.546,-0.6568349,3.947722673,5.06981802,-0.169035137,-0.111526541,0.274749726
2.548,-0.67945528,3.994897842,5.126857281,-0.167045459,-0.110112824,0.275535137
2.55,-0.710551202,4.016043663,5.19711256,-0.164026037,-0.107966065,0.275866747
2.552,-0.749796927,4.01858139,5.279272079,-0.160273582,-0.105819315,0.275988907
2.554,-0.80296737,3.991871595,5.37284708,-0.156852737,-0.104004167,0.275727123
2.556,-0.86179769,3.950662613,5.47507,-0.152314887,-0.102311201,0.274679929
2.558,-0.930913508,3.88919878,5.577436447,-0.146677464,-0.099745564,0.272986949
2.56,-1.013207078,3.838594913,5.683451653,-0.140900433,-0.097110122,0.270403862
2.562,-1.142762065,3.749559402,5.842790604,-0.135088489,-0.094457217,0.267140091
2.564,-1.227392316,3.69288373,5.935379505,-0.128927469,-0.090547681,0.263928682
2.566,-1.26864922,3.663109303,5.980543613,-0.122940995,-0.087057024,0.261031449
2.568,-1.351699233,3.620531082,6.068975449,-0.117670097,-0.085311696,0.25827381
2.57,-1.405233622,3.581649065,6.159141064,-0.113638386,-0.083356924,0.254311919
2.572,-1.458202839,3.52141118,6.286100864,-0.109781213,-0.081279986,0.24986133
2.574,-1.487938881,3.507352352,6.367216587,-0.105993845,-0.080442227,0.245847076
2.576,-1.502064705,3.503866196,6.416316986,-0.103201315,-0.08011061,0.241675735
2.578,-1.521936536,3.503588676,6.507698536,-0.100478604,-0.079325214,0.238411978
2.58,-1.517014027,3.5020082,6.589819908,-0.097476639,-0.078382738,0.235497281
2.582,-1.504707932,3.557659149,6.711885929,-0.094369955,-0.077684604,0.230837241
2.584,-1.496385574,3.587835789,6.74048233,-0.091210909,-0.077091195,0.225793243
2.586,-1.464964151,3.651818275,6.827784061,-0.088331111,-0.077161007,0.222145513
2.588,-1.451575756,3.685308695,6.861896992,-0.084962629,-0.077824228,0.219091177
2.59,-1.423946619,3.756742001,6.919233322,-0.080424771,-0.077771872,0.215949595
2.592,-1.359006405,3.882274628,6.998969555,-0.075747289,-0.077754416,0.212790549
2.594,-1.340647578,3.92650032,7.030515671,-0.070999995,-0.079011053,0.209282428
2.596,-1.298078775,4.027257919,7.096653461,-0.066235244,-0.080459677,0.205966309
2.598,-1.234393001,4.141978741,7.172185421,-0.061767202,-0.081995569,0.203348309
2.6,-1.181011796,4.266228199,7.258750439,-0.057735492,-0.083269656,0.200398698
2.602,-1.125562191,4.387393475,7.360235691,-0.053249996,-0.083775803,0.196977854
2.604,-1.042895198,4.546493053,7.486611366,-0.048904125,-0.085241884,0.193696633
2.606,-1.011416197,4.584033966,7.533757687,-0.046181411,-0.086481065,0.190153629
2.608,-0.953888238,4.672035694,7.621788025,-0.044767696,-0.085713118,0.187134206
2.61,-0.874697626,4.753620625,7.705182552,-0.043860123,-0.084770642,0.185266703
2.612,-0.784005284,4.819844246,7.763544083,-0.041922808,-0.084072508,0.183242112
2.614,-0.700160325,4.853372574,7.814051628,-0.040194932,-0.083164938,0.180536851
2.616,-0.616813421,4.853794098,7.849725723,-0.03885103,-0.08215265,0.178163216
2.618,-0.535755336,4.85088253,7.872747898,-0.036407568,-0.081437066,0.176260799
2.62,-0.474674434,4.848402023,7.890015125,-0.034470253,-0.081140354,0.174218759
2.622,-0.404380679,4.818340302,7.891011238,-0.032410763,-0.080389865,0.172438532
2.624,-0.341844112,4.787378788,7.882018566,-0.028431414,-0.079447389,0.171077177
2.626,-0.281136751,4.755018711,7.871464729,-0.023963371,-0.078749254,0.169262037
2.628,-0.224825114,4.723510742,7.862864971,-0.021205751,-0.077841684,0.166312426
2.63,-0.166550249,4.68743515,7.84939003,-0.019128809,-0.076829396,0.162909031
2.632,-0.121386021,4.654797554,7.848748684,-0.016074482,-0.076113805,0.160256133
2.634,-0.083442718,4.634159088,7.834383488,-0.012618731,-0.075171329,0.157289073
2.636,-0.057556611,4.565761566,7.770401001,-0.009320058,-0.073862337,0.152925745
2.638,-0.051111419,4.545564651,7.746994972,-0.006405358,-0.073007122,0.149243102
2.64,-0.054472879,4.508377552,7.700164318,-0.003944444,-0.072343901,0.14585717
2.642,-0.09405382,4.459746361,7.658361912,-0.001692969,-0.071436323,0.140690997
2.644,-0.138040096,4.418978214,7.616875172,0.000785398,-0.071069807,0.135123387
2.646,-0.178214803,4.395534039,7.562679768,0.004014257,-0.070598565,0.129381254
2.648,-0.229958281,4.374120235,7.525943279,0.00816814,-0.070738196,0.122312672
2.65,-0.2953583,4.354162216,7.487444401,0.011763519,-0.071733035,0.114057265
2.652,-0.386893421,4.341635704,7.460428238,0.014172073,-0.071820296,0.105016463
2.654,-0.487880856,4.344949245,7.433335304,0.016720254,-0.072483525,0.095033176
2.656,-0.553424478,4.363930702,7.393026829,0.01870993,-0.073391095,0.084962629
2.658,-0.646597266,4.376868725,7.364085674,0.019512782,-0.073757611,0.075188786
2.66,-0.780720472,4.368709564,7.393151283,0.019844394,-0.074857168,0.064891338
2.662,-0.867457569,4.368910789,7.399912834,0.019041542,-0.07531096,0.055344392
2.664,-0.947586715,4.37636137,7.377406597,0.017435839,-0.075799651,0.047036622
2.666,-1.016654611,4.355512619,7.387644768,0.01584759,-0.076951563,0.038920842
2.668,-1.102596879,4.323506832,7.415216446,0.0145735,-0.077422805,0.030874874
2.67,-1.181097984,4.293924332,7.439962387,0.013735741,-0.077614792,0.023823744
2.672,-1.230772972,4.262636662,7.450928211,0.012130038,-0.077056289,0.017470745
2.674,-1.257501841,4.226110935,7.473663807,0.010210176,-0.075258598,0.010786135
2.676,-1.273351431,4.174185753,7.500459671,0.0084823,-0.072623149,0.004904375
2.678,-1.288817883,4.11974144,7.540308475,0.006527531,-0.070912726,0.000628319
2.68,-1.303652287,4.067097187,7.584122181,0.004764749,-0.069917887,-0.003944444
2.682,-1.303729057,4.016283035,7.63425684,0.002478367,-0.067299895,-0.009599311
2.684,-1.298758626,3.970074892,7.686862469,-0.000331613,-0.064018674,-0.014433873
2.686,-1.29651773,3.924173117,7.741392612,-0.003054326,-0.061418135,-0.01733112
2.688,-1.307234168,3.896773815,7.801496506,-0.005742133,-0.059411008,-0.019163715
2.69,-1.3101933,3.865783453,7.859148979,-0.008098328,-0.057019908,-0.021781709
2.692,-1.301689267,3.811253071,7.92387867,-0.011274827,-0.05321509,-0.024748769
2.694,-1.306420088,3.742549181,7.99418211,-0.014765485,-0.049759336,-0.026598819
2.696,-1.315786242,3.657210112,8.054247856,-0.017767452,-0.047088984,-0.028291788
2.698,-1.319166899,3.571497917,8.117129326,-0.019931659,-0.044750243,-0.029618237
2.7,-1.316399217,3.481648207,8.195035934,-0.021450097,-0.042847835,-0.030141836
2.702,-1.303384304,3.40766716,8.270386696,-0.023963371,-0.041119955,-0.031311207
2.704,-1.295004487,3.332671404,8.334819794,-0.02687807,-0.039793506,-0.032742377
2.706,-1.27204895,3.241844893,8.390996933,-0.028693212,-0.038938295,-0.033318337
2.708,-1.256630301,3.178618908,8.447318077,-0.029443704,-0.038589228,-0.03354523
2.71,-1.2384727,3.130581617,8.492721558,-0.031625368,-0.038449604,-0.03333579
2.712,-1.237179756,3.082228184,8.530340195,-0.035046212,-0.039653879,-0.033248521
2.714,-1.223178506,3.063246965,8.562306404,-0.037699111,-0.042027529,-0.033841934
2.716,-1.21286428,3.03126049,8.589944839,-0.040055305,-0.045535639,-0.035342917
2.718,-1.213946462,3.001495838,8.614079475,-0.041957714,-0.049480084,-0.03721042
2.72,-1.225907803,2.990750551,8.635214806,-0.043982297,-0.052342422,-0.038292523
2.722,-1.242638588,2.975399017,8.657892227,-0.04733333,-0.054768432,-0.038728856
2.724,-1.26446414,2.966961622,8.677477837,-0.051225413,-0.05766568,-0.039549161
2.726,-1.286873817,2.957624435,8.676567078,-0.054716073,-0.060720004,-0.041765727
2.728,-1.302484035,2.94948411,8.67324543,-0.057386424,-0.062604956,-0.043929938
2.73,-1.313468575,2.942924023,8.672334671,-0.0591143,-0.063058749,-0.046076693
2.732,-1.342974782,2.95337224,8.666014671,-0.06169739,-0.063233279,-0.050108403
2.734,-1.347236395,2.955574989,8.671310425,-0.064646997,-0.063634701,-0.05396558
2.736,-1.364819407,2.942052603,8.684239388,-0.066479594,-0.064105943,-0.05742133
2.738,-1.387315392,2.919537306,8.700614929,-0.067544244,-0.065240406,-0.061348323
2.74,-1.399736404,2.8997612,8.715994835,-0.069551371,-0.065711647,-0.064210661
2.742,-1.390418172,2.875244617,8.727851868,-0.072274081,-0.065257862,-0.066008352
2.744,-1.384566903,2.844426632,8.744093895,-0.074944437,-0.064140849,-0.068643801
2.746,-1.368506551,2.798563242,8.761695862,-0.077614792,-0.062098816,-0.071593404
2.748,-1.360308886,2.741562128,8.782248497,-0.07902851,-0.060004421,-0.073129296
2.75,-1.351622701,2.698361158,8.799151421,-0.08117526,-0.057578411,-0.073740162
2.752,-1.335418701,2.666939735,8.828330994,-0.084247045,-0.05375614,-0.074944437
2.754,-1.321206689,2.605868101,8.85146904,-0.086777769,-0.048712138,-0.076375611
2.756,-1.298193574,2.545323849,8.870278358,-0.08874999,-0.044139378,-0.07696902
2.758,-1.274826169,2.503090143,8.892916679,-0.090181164,-0.040701076,-0.077510074
2.76,-1.266618848,2.446673155,8.921408653,-0.092031211,-0.037105698,-0.078365281
2.762,-1.24861455,2.391185045,8.962838173,-0.093724184,-0.032463122,-0.078400187
2.764,-1.232851028,2.350071669,9.003912926,-0.095364787,-0.027436575,-0.077789322
2.766,-1.213630319,2.3050704,9.04690361,-0.096970491,-0.022863813,-0.077527523
2.768,-1.188596725,2.270114899,9.090946198,-0.097947881,-0.018779743,-0.076480329
2.77,-1.162461519,2.2331388,9.142700195,-0.099920101,-0.015550883,-0.075118974
2.772,-1.149973392,2.207166672,9.189338684,-0.102939516,-0.013281955,-0.074228853
2.774,-1.144648671,2.173437357,9.24024868,-0.106377818,-0.011728613,-0.072308987
2.776,-1.145501018,2.150280476,9.282904625,-0.109659039,-0.011728613,-0.069621183
2.778,-1.154934168,2.135742903,9.322868347,-0.112573735,-0.012356931,-0.067264989
2.78,-1.166186929,2.10995245,9.351052284,-0.115977131,-0.01293289,-0.06536258
2.782,-1.183195353,2.094562531,9.36459446,-0.11894419,-0.013805554,-0.063634701
2.784,-1.205193281,2.080992222,9.36993885,-0.121405102,-0.015725417,-0.060720004
2.786,-1.228168011,2.080580235,9.378192902,-0.124930665,-0.018099064,-0.057334065
2.788,-1.254571319,2.072602987,9.37378788,-0.12857841,-0.020001473,-0.055012777
2.79,-1.281137347,2.065563917,9.363214493,-0.130707711,-0.022671826,-0.05248205
2.792,-1.298710823,2.040309906,9.3639431,-0.132191241,-0.026284659,-0.048921578
2.794,-1.32636857,2.016942501,9.359949112,-0.133744583,-0.03090978,-0.04527384
2.796,-1.356075764,2.003755331,9.36184597,-0.135018677,-0.035953783,-0.042202063
2.798,-1.387794137,1.98760879,9.364402771,-0.136153132,-0.041154865,-0.039374627
2.8,-1.385572433,1.950536966,9.366452217,-0.137252688,-0.04675737,-0.036337756
2.802,-1.408077836,1.926977992,9.373558998,-0.138334796,-0.051871184,-0.032567844
2.804,-1.430564165,1.896993041,9.396168709,-0.1397136,-0.058049649,-0.02883284
2.806,-1.440754056,1.862899661,9.411510468,-0.141232044,-0.064036131,-0.02698279
2.808,-1.441673398,1.827982545,9.426718712,-0.142157063,-0.069324479,-0.025918139
2.81,-1.451202273,1.795651197,9.434610367,-0.141912714,-0.075258598,-0.024539329
2.812,-1.44884634,1.778891802,9.431775093,-0.140219748,-0.081140354,-0.022724187
2.814,-1.439863324,1.78047204,9.430042267,-0.138282433,-0.086062185,-0.020717058
2.816,-1.427844524,1.784494281,9.430434227,-0.136537105,-0.089343406,-0.020210912
2.818,-1.419771194,1.795890689,9.425244331,-0.134564892,-0.091926493,-0.020961404
2.82,-1.405386806,1.802613616,9.412075996,-0.132191241,-0.094561942,-0.021886429
2.822,-1.386893988,1.80173254,9.40855217,-0.127740651,-0.096900679,-0.023527037
2.824,-1.380075336,1.794846773,9.411884308,-0.122155592,-0.098157316,-0.025150195
2.826,-1.380965948,1.791648149,9.422332764,-0.118298419,-0.098995075,-0.026127579
2.828,-1.384585977,1.784896493,9.435146332,-0.115470983,-0.099640846,-0.027785642
2.83,-1.369157672,1.763932824,9.457680702,-0.112102501,-0.099920101,-0.029408798
2.832,-1.366763592,1.748370647,9.483078003,-0.107896254,-0.100338981,-0.030700341
2.834,-1.363813877,1.726707935,9.525857925,-0.103340946,-0.10051351,-0.033108898
2.836,-1.354735136,1.703924537,9.568628311,-0.098646007,-0.099309236,-0.035988688
2.838,-1.343424916,1.682903528,9.59982872,-0.093898714,-0.096621424,-0.03811799
2.84,-1.329576731,1.667685986,9.626634598,-0.089744829,-0.093322754,-0.03960152
2.842,-1.292830586,1.654192209,9.651045799,-0.086166903,-0.090076439,-0.041469023
2.844,-1.281520367,1.639175773,9.666905403,-0.083444193,-0.085922562,-0.043493606
2.846,-1.268007517,1.616220236,9.671904564,-0.082344636,-0.081698865,-0.044959683
2.848,-1.247072577,1.608721614,9.659435272,-0.082833327,-0.078400187,-0.045867253
2.85,-1.222728372,1.602352977,9.641115189,-0.083356924,-0.074543014,-0.046233773
2.852,-1.206074357,1.603368163,9.629259109,-0.082623884,-0.070127331,-0.04605924
2.854,-1.187600732,1.60470891,9.616799355,-0.08232718,-0.065484755,-0.045361105
2.856,-1.17105186,1.601098418,9.611129761,-0.082519166,-0.060440753,-0.044767696
2.858,-1.148872018,1.59709537,9.615305901,-0.0832173,-0.055553831,-0.045151666
2.86,-1.131595492,1.597123981,9.621530533,-0.085730575,-0.051347587,-0.045308746
2.862,-1.101677537,1.609698415,9.620563507,-0.088941976,-0.047734756,-0.044750243
2.864,-1.08788693,1.638084054,9.641278267,-0.092467546,-0.044069562,-0.044523351
2.866,-1.063513875,1.662993312,9.662605286,-0.096429437,-0.04066617,-0.044104472
2.868,-1.039638996,1.688860297,9.672613144,-0.100880027,-0.038030725,-0.043947391
2.87,-1.023013711,1.73558557,9.662614822,-0.105225898,-0.035377823,-0.043563418
2.872,-1.01700902,1.78218627,9.642072678,-0.11014773,-0.033039082,-0.042760566
2.874,-1.024708748,1.809489727,9.635349274,-0.115296453,-0.030508354,-0.042132247
2.876,-1.018282771,1.837205052,9.618312836,-0.119607411,-0.027576203,-0.041870449
2.878,-1.018914819,1.863895655,9.608755112,-0.124529243,-0.025446901,-0.041765727
2.88,-1.027055025,1.873606443,9.612259865,-0.129677966,-0.023631757,-0.040770892
2.882,-1.022295356,1.885519981,9.615267754,-0.134303078,-0.021938788,-0.039741147
2.884,-1.00841856,1.910553813,9.609128952,-0.139661253,-0.020612339,-0.039636426
2.886,-1.010678768,1.927945256,9.600624084,-0.144984499,-0.019442968,-0.040229838
2.888,-1.012986779,1.937952995,9.597924232,-0.149365276,-0.017086774,-0.041102503
2.89,-1.01176095,1.917573571,9.604809761,-0.153362081,-0.014538593,-0.042079888
2.892,-1.011358738,1.906933665,9.611638069,-0.157201812,-0.013508848,-0.042167153
2.894,-1.020246029,1.895997047,9.609942436,-0.160029233,-0.01277581,-0.04251622
2.896,-1.022314548,1.886803389,9.618590355,-0.161809474,-0.012461651,-0.043929938
2.898,-1.024325728,1.862813473,9.622698784,-0.163799152,-0.01298525,-0.044174284
2.9,-1.043431401,1.826651335,9.626807213,-0.165858641,-0.012863076,-0.043336526
2.902,-1.056791067,1.796417356,9.63385582,-0.167342171,-0.01282817,-0.04363323
2.904,-1.062096596,1.775041938,9.647071838,-0.168249741,-0.013753194,-0.044383723
2.906,-1.088777542,1.745334744,9.653497696,-0.168319553,-0.014765485,-0.04436627
2.908,-1.130685687,1.722407818,9.668907166,-0.16770868,-0.015812684,-0.04436627
2.91,-1.160699487,1.697067618,9.692246437,-0.166818574,-0.017488198,-0.044034656
2.912,-1.177353501,1.673403263,9.719798088,-0.164567098,-0.019128809,-0.043284167
2.914,-1.187236667,1.668528676,9.734603882,-0.160814643,-0.020420352,-0.042341687
2.916,-1.20255959,1.650907516,9.746623039,-0.157079637,-0.02125811,-0.041643556
2.918,-1.219951153,1.617235303,9.757013321,-0.153972939,-0.021607175,-0.041050144
2.92,-1.247589707,1.595074534,9.75590229,-0.149871424,-0.02300344,-0.040160026
2.922,-1.270085692,1.571333766,9.748940468,-0.145368472,-0.024521876,-0.038240165
2.924,-1.281826854,1.551375628,9.727516174,-0.139416903,-0.024836035,-0.035866518
2.926,-1.276712894,1.537518024,9.707597733,-0.132278502,-0.024644049,-0.033964109
2.928,-1.27376318,1.524733067,9.671780586,-0.126833081,-0.024242623,-0.031922072
2.93,-1.244084716,1.510425329,9.635359764,-0.120829143,-0.024399703,-0.029199358
2.932,-1.21724081,1.523516774,9.597924232,-0.114598319,-0.024469515,-0.026511552
2.934,-1.187476158,1.511900067,9.562508583,-0.108280227,-0.023858652,-0.024783675
2.936,-1.1625669,1.501298547,9.529478073,-0.101281457,-0.023928463,-0.023771385
2.938,-1.132725596,1.520768166,9.506637573,-0.095923297,-0.024277531,-0.023038346
2.94,-1.099101424,1.531446338,9.484122276,-0.091210909,-0.024085544,-0.022427481
2.942,-1.074479342,1.533026457,9.465744019,-0.087388635,-0.023387412,-0.022165682
2.944,-1.04060626,1.52728045,9.445480347,-0.083950333,-0.021519909,-0.022392575
2.946,-1.004243135,1.520777702,9.448927879,-0.080651663,-0.018867008,-0.022794001
2.948,-0.973003626,1.523037791,9.469594955,-0.078679442,-0.016842427,-0.023265239
2.95,-0.93925488,1.512034178,9.49158287,-0.077248275,-0.015079645,-0.024731316
2.952,-0.913522005,1.506968021,9.506302834,-0.076340698,-0.013404129,-0.026581364
2.954,-0.880788505,1.51205337,9.522754669,-0.075345866,-0.010838495,-0.029234264
2.956,-0.861328423,1.509496331,9.535884857,-0.07367035,-0.007888888,-0.032829642
2.958,-0.864421725,1.50229454,9.560056686,-0.072047189,-0.005427974,-0.036198128
2.96,-0.851205766,1.478199363,9.583807945,-0.070755646,-0.001902409,-0.039461896
2.962,-0.835126281,1.452456832,9.599034309,-0.069289573,0.002042035,-0.042987458
2.964,-0.830385745,1.414025187,9.615104675,-0.067736231,0.007435102,-0.047595128
2.966,-0.834350586,1.3936553,9.632342339,-0.067107908,0.013421582,-0.051993359
2.968,-0.826286852,1.365815401,9.654618263,-0.066531949,0.019338248,-0.055676002
2.97,-0.831276417,1.334891915,9.674432755,-0.064734265,0.026162485,-0.060318578
2.972,-0.830155969,1.310059309,9.684085846,-0.062727131,0.032096606,-0.064437553
2.974,-0.839742303,1.287639976,9.70240593,-0.061278511,0.038920842,-0.068626344
2.976,-0.851129174,1.26481843,9.71402359,-0.059742618,0.045814894,-0.073181659
2.978,-0.866260469,1.236279488,9.724949837,-0.056915186,0.051138148,-0.076916657
2.98,-0.891054809,1.205518961,9.717155457,-0.053860862,0.055833083,-0.080337502
2.982,-0.931919038,1.173905849,9.70068264,-0.052307516,0.060580377,-0.083304562
2.984,-0.970120966,1.14438045,9.683215141,-0.051050879,0.065990902,-0.086097091
2.986,-1.00132215,1.115429759,9.652454376,-0.048956484,0.071034901,-0.089116514
2.988,-1.027514815,1.099771738,9.620448112,-0.047787115,0.07623598,-0.092886426
2.99,-1.048938155,1.090683341,9.584074974,-0.047298424,0.081506878,-0.095993109
2.992,-1.07518816,1.066568971,9.538547516,-0.046478119,0.08618436,-0.098192222
2.994,-1.106006265,1.05020225,9.500441551,-0.046146505,0.090303332,-0.100670591
2.996,-1.135474086,1.031163573,9.462143898,-0.04569272,0.094492123,-0.103271134
2.998,-1.160766482,1.013599634,9.424813271,-0.045518186,0.098733276,-0.104946651
3,-1.182457924,0.98819238,9.397452354,-0.04605924,0.101403631,-0.1062731
3.002,-1.198901296,0.968694031,9.365504265,-0.045971971,0.103114054,-0.10775663
3.004,-1.208918571,0.950469375,9.337100029,-0.046251226,0.104143798,-0.1086642
3.006,-1.237888455,0.92623049,9.323394775,-0.047630034,0.103916906,-0.109362334
3.008,-1.248375177,0.896427453,9.316384315,-0.04881686,0.102887161,-0.109641582
3.01,-1.256180167,0.864115298,9.305936813,-0.049305551,0.101508349,-0.109432146
3.012,-1.267365813,0.852862537,9.288439751,-0.04918338,0.099064887,-0.109048173
