Time (s),Gyroscope x (rad/s),Gyroscope y (rad/s),Gyroscope z (rad/s)
0.213487813,-0.061435588,-0.539289296,-0.313670576
0.223481563,-0.077405348,-0.528642774,-0.291312903
0.233481563,-0.091245815,-0.520125568,-0.244468272
0.24348,-0.09869837,-0.529707432,-0.196558982
0.25348,-0.092310466,-0.56058228,-0.152908295
0.26348,-0.074211396,-0.6084916,-0.138003185
0.273481563,-0.049829151,-0.628911912,-0.152402148
0.28348,-0.017959438,-0.632681847,-0.193347573
0.293481563,0.006859144,-0.614111543,-0.250995785
0.303481563,0.017523106,-0.555625558,-0.293250233
0.31348,0.003857178,-0.483054787,-0.305135906
0.323481563,-0.025987953,-0.439770609,-0.291208178
0.33348,-0.049235739,-0.416261017,-0.276931405
0.34348,-0.044034656,-0.362138361,-0.273894519
0.35348,-0.012444197,-0.272114277,-0.280230075
0.363483125,0.02576106,-0.167883217,-0.275482774
0.373481563,0.060475659,-0.073373638,-0.243770137
0.38348,0.088854715,0.006457718,-0.191427708
0.39348,0.110688783,0.054977871,-0.125908047
0.40348,0.132854462,0.069603734,-0.062954023
0.413484688,0.151058242,0.062535144,-0.021170843
0.42348,0.164252937,0.033597589,-0.016842427
0.433481563,0.167202547,-0.006457718,-0.043545965
0.443481563,0.15746361,-0.048729591,-0.085433863
0.45348,0.144862324,-0.079342671,-0.120480075
0.463484688,0.129328892,-0.095783666,-0.138247535
0.47348,0.115401171,-0.108646743,-0.137235239
0.48348,0.104597583,-0.122103237,-0.125175014
0.49348,0.091996305,-0.135577172,-0.113865279
0.503481563,0.077894047,-0.145665184,-0.107651904
0.513481563,0.061610121,-0.152349785,-0.112311937
0.523481563,0.044418629,-0.166382238,-0.119537599
0.53348,0.030508354,-0.184498757,-0.128560945
0.54348,0.014695672,-0.209596589,-0.138648957
0.55348,-0.000820305,-0.244520634,-0.144181654
0.56348,-0.016912241,-0.283720732,-0.140656084
0.573481563,-0.031799898,-0.313373864,-0.13311626
0.583481563,-0.041643556,-0.32539919,-0.129835039
0.593481563,-0.043353979,-0.317405581,-0.126675993
0.60348,-0.034470253,-0.300161719,-0.128805295
0.61348,-0.02713987,-0.28684485,-0.136903629
0.62348,-0.030490901,-0.288363308,-0.15723671
0.63348,-0.052290063,-0.295100272,-0.191549882
0.643478438,-0.085398957,-0.297718257,-0.237731293
0.653481563,-0.123237699,-0.295239896,-0.291243106
0.663481563,-0.15245451,-0.27204448,-0.338611335
0.673481563,-0.167726144,-0.246998996,-0.368962616
0.68348,-0.165876091,-0.247766942,-0.386590421
0.69348,-0.150883719,-0.271171808,-0.396835506
0.70348,-0.123010807,-0.310494065,-0.39969784
0.71348,-0.089064151,-0.366239876,-0.399942189
0.723481563,-0.064612091,-0.428216517,-0.410431623
0.733481563,-0.055187311,-0.466090173,-0.426750451
0.74348,-0.06314601,-0.472478092,-0.442755133
0.75348,-0.075188786,-0.447380245,-0.442423522
0.76348,-0.082571529,-0.406015933,-0.427605659
0.773481563,-0.079587013,-0.354266942,-0.404864013
0.78348,-0.068800882,-0.295292258,-0.379923284
0.793481563,-0.051103242,-0.245236218,-0.358420819
0.80348,-0.041591197,-0.215007111,-0.340321749
0.81348,-0.043388885,-0.207449839,-0.328017175
0.82348,-0.055501468,-0.216316104,-0.320791513
0.83348,-0.07276278,-0.231936797,-0.314997017
0.84348,-0.085678212,-0.255289316,-0.306444913
0.85348,-0.105033912,-0.286129266,-0.312693179
0.863481563,-0.129520878,-0.313705474,-0.341508567
0.873487813,-0.155805543,-0.317510307,-0.393030703
0.88348,-0.17659241,-0.288764715,-0.463402361
0.89348,-0.199421316,-0.247906566,-0.557301104
0.90348,-0.227294222,-0.191689506,-0.654114485
0.91348,-0.249337733,-0.136275306,-0.718709111
0.923595625,-0.253875583,-0.102119215,-0.725952268
0.933481563,-0.227521122,-0.102014497,-0.677065551
0.943481563,-0.162071273,-0.108943455,-0.592486918
0.95348,-0.075049154,-0.127793014,-0.50186944
0.96348,0.006178466,-0.141808003,-0.421723902
0.973484688,0.067090459,-0.13163273,-0.351701289
0.98348,0.102712624,-0.104615033,-0.287036836
0.99348,0.102415919,-0.075747289,-0.229179189
1.003481563,0.081035636,-0.043353979,-0.173154116
1.013481563,0.057281706,-0.003019419,-0.108227864
1.023487813,0.039217547,0.029007372,-0.026947884
1.03348,0.022444934,0.046547931,0.074735001
1.04348,0.015358897,0.016406095,0.224641323
1.05348,0.002495821,-0.06981317,0.390325427
1.06348,-0.086062185,-0.339990139,0.574178398
1.07348,-0.16383405,-0.639331579,0.757717252
1.083481563,-0.165596843,-0.684430838,0.934955418
1.093481563,-0.12505284,-0.656174004,1.068350911
1.10348,-0.075136423,-0.636381924,1.159753799
1.11348,-0.008726646,-0.571542978,1.24155736
1.12348,0.067038096,-0.490507334,1.317042947
1.13348,0.124092907,-0.447275519,1.371165514
1.143478438,0.17954202,-0.473001689,1.400452137
1.153481563,0.225513995,-0.513528228,1.408218861
1.16348,0.238237441,-0.490629494,1.387170196
1.17348,0.24689427,-0.446193427,1.423699975
1.18348,0.270770371,-0.672213554,1.516970396
1.19348,0.303460389,-0.735324681,1.651116371
1.20348,0.329483241,-0.536077857,1.79542017
1.21348,0.348402619,-0.225845605,1.94797945
1.223483125,0.344510525,0.071157075,2.066906214
1.233481563,0.319622159,0.32597515,2.137906075
1.24348,0.276756853,0.456071973,2.165779114
1.25348,0.223192707,0.45169121,2.158658028
1.26348,0.178180665,0.439369172,2.135776758
1.27348,0.16406095,0.536810935,2.138691664
1.28348,0.181392074,0.729687274,2.175099134
1.293481563,0.216647714,0.953141749,2.225469351
1.303481563,0.246108875,1.146820903,2.266885996
1.31348,0.251362324,1.245746255,2.281878471
1.32348,0.226316839,1.230928302,2.270847797
1.33348,0.178686813,1.112333179,2.236552238
1.34348,0.105452791,0.966022313,2.18509984
1.35348,1.74533E-05,0.892543912,2.14790678
1.363481563,-0.129171818,0.879698277,2.140646219
1.37348,-0.274121404,0.904307425,2.151362658
1.38348,-0.42427209,0.911690176,2.173091888
1.39348,-0.573864281,0.859504819,2.199044943
1.40348,-0.719058216,0.750002861,2.207823992
1.41348,-0.834005594,0.599852204,2.199830532
1.42348,-0.899577618,0.42847833,2.166529655
1.433481563,-0.94036597,0.315991849,2.093871593
1.443481563,-0.975831032,0.318138629,1.973112106
1.453481563,-1.016881227,0.401198834,1.79781127
1.46348,-1.066256523,0.547108352,1.577079535
1.473481563,-1.106276989,0.693122625,1.362561107
1.48348,-1.145546794,0.774001181,1.187818766
1.49348,-1.184048772,0.794124782,1.084791899
1.503481563,-1.206912637,0.747349977,1.068752408
1.513481563,-1.215011001,0.629627526,1.115666866
1.523481563,-1.208954692,0.513440967,1.188237548
1.53348,-1.184694529,0.41346851,1.237403512
1.54348,-1.127936482,0.341334045,1.219566226
1.55348,-1.040408254,0.341508567,1.139246225
1.56348,-0.955724835,0.459859341,1.029395223
1.57348,-0.870378256,0.673156023,0.909246743
1.583481563,-0.800599992,0.892142475,0.824319005
1.593481563,-0.753249168,1.01454246,0.810408711
1.60348,-0.730367959,0.955393255,0.882892251
1.61348,-0.697293937,0.780284345,0.992638528
1.62348,-0.645108581,0.515203714,1.096031904
1.63348,-0.576936007,0.213244334,1.151236653
1.643478438,-0.499897212,0.00710349,1.123625517
1.653481563,-0.427413672,-0.050073497,1.008678079
1.663481563,-0.381214827,0.040177479,0.819903314
1.67348,-0.39561379,0.281242341,0.595244527
1.68348,-0.469685555,0.56445694,0.385071993
1.69348,-0.574213326,0.840061843,0.238726139
1.703484688,-0.675547123,1.00818944,0.170710653
1.71348,-0.752428889,0.997455657,0.15655604
1.723481563,-0.799954236,0.832801282,0.13426818
1.733481563,-0.823394001,0.58231163,0.057491146
1.74348,-0.826343596,0.338052809,-0.090320788
1.75348,-0.822643459,0.170972452,-0.306252927
1.76348,-0.81192714,0.100565873,-0.560599744
1.77348,-0.796062112,0.105417885,-0.820653796
1.78348,-0.777805984,0.142366514,-1.049309373
1.793481563,-0.756041706,0.125297189,-1.204015374
1.80348,-0.716841638,0.050440013,-1.262431502
1.81348,-0.641722679,-0.076096356,-1.223598003
1.82348,-0.547806501,-0.23188445,-1.125981688
1.83348,-0.462023556,-0.380778491,-1.032379746
1.84348,-0.428967029,-0.525029957,-1.027161121
1.85348,-0.459126323,-0.674534857,-1.145930767
1.863481563,-0.536723673,-0.812869668,-1.396891713
1.873481563,-0.630325675,-0.90783298,-1.730633616
1.88348,-0.703350246,-0.949144959,-2.077779531
1.89348,-0.75103265,-0.951152086,-2.397576332
1.90348,-0.841685057,-0.941308439,-2.725785494
1.91348,-1.013407946,-0.969425678,-3.049683571
1.92348,-1.225500345,-0.985604882,-3.308428764
1.933481563,-1.44783783,-0.985709608,-3.505877733
1.943481563,-1.627589345,-0.987193108,-3.601940632
1.953481563,-1.681240797,-0.968570471,-3.568133593
1.96348,-1.57355392,-0.95219928,-3.435907602
1.97348,-1.306204438,-0.905581534,-3.233047962
1.98348,-0.921516359,-0.80850631,-3.016819
1.99348,-0.476213098,-0.72897166,-2.841203928
2.003481563,-0.027942721,-0.673592389,-2.732679367
2.013481563,0.352992833,-0.618928671,-2.689622164
2.023481563,0.621215045,-0.544036567,-2.653947592
2.03348,0.758153558,-0.424603701,-2.610052586
2.04348,0.781314075,-0.336674005,-2.556104422
2.05348,0.74377203,-0.281888127,-2.479065657
2.06348,0.698550582,-0.234764233,-2.354833126
2.07348,0.682476103,-0.256720483,-2.161869526
2.083481563,0.719826162,-0.298905075,-1.938310266
2.093481563,0.804125547,-0.328540772,-1.738539934
2.10348,0.909176886,-0.365140319,-1.579034328
2.11348,1.012308359,-0.403694659,-1.465378404
2.12348,1.10261178,-0.452825665,-1.374394417
2.13348,1.166089416,-0.503963828,-1.301526904
2.143478438,1.19682467,-0.559517622,-1.236111999
2.153481563,1.199774265,-0.611580849,-1.171761751
2.16348,1.185654521,-0.638441443,-1.115352631
2.17348,1.154413104,-0.625473619,-1.068403244
2.18348,1.101459861,-0.580723405,-1.032554269
2.19348,1.028993726,-0.52372092,-1.005431771
2.20348,0.935618639,-0.478621632,-0.984557688
2.21348,0.835628748,-0.442231536,-0.966510952
2.223481563,0.738815308,-0.434098303,-0.937922478
2.233481563,0.664726079,-0.456543237,-0.903818727
2.24348,0.619696617,-0.478621632,-0.875771284
2.25348,0.61393702,-0.46364671,-0.861215234
2.26348,0.635264933,-0.413887382,-0.865264416
2.27348,0.658565104,-0.344877064,-0.874200523
2.28348,0.67025876,-0.258134186,-0.882002115
2.293481563,0.656645238,-0.170867726,-0.872367918
2.303481563,0.623658478,-0.092973687,-0.829118669
2.31348,0.592242599,-0.034435347,-0.751102448
2.32348,0.569500923,0.008412487,-0.653974891
2.33348,0.558016658,0.046896998,-0.558627546
2.34348,0.560983717,0.092362821,-0.472600251
2.35348,0.577791274,0.14585717,-0.400814861
2.363481563,0.599677682,0.195040539,-0.33257249
2.373481563,0.61257565,0.220819056,-0.284558475
2.38348,0.595820487,0.202353477,-0.257907301
2.39348,0.549848497,0.13880603,-0.228533417
2.40348,0.498954713,0.071314156,-0.168563902
2.41348,0.452546418,0.027104963,-0.100199349
2.42348,0.413416147,-0.010314896,-0.03239331
2.433481563,0.399470955,-0.02310816,0.045326199
2.443483125,0.418896466,0.017191494,0.117460661
2.453481563,0.451830834,0.071383968,0.173468277
2.46348,0.476178169,0.111404367,0.219632238
2.47348,0.483543456,0.149801612,0.259617716
2.48348,0.45977208,0.162210897,0.299079627
2.49348,0.407970697,0.125698611,0.34428364
2.503481563,0.350688994,0.090198614,0.385525763
2.513481563,0.319011271,0.103969261,0.433452517
2.523481563,0.324770868,0.154374376,0.486231267
2.53348,0.349432379,0.2361954,0.522342145
2.54348,0.37409386,0.33496359,0.529777229
2.55348,0.378369927,0.43280676,0.517437756
2.56348,0.351928174,0.521888375,0.496825427
2.57348,0.298329115,0.571769834,0.488884181
2.583481563,0.228760302,0.55567795,0.499111801
2.593481563,0.162961394,0.517786801,0.514505625
2.60348,0.10939724,0.498082072,0.530073941
2.61348,0.078819066,0.479860812,0.534384906
2.62348,0.069027774,0.468010038,0.542971909
2.63348,0.071767941,0.480663687,0.573026478
2.643478438,0.07845255,0.504871368,0.624566078
2.653481563,0.086027279,0.490996033,0.695845306
2.663481563,0.091856681,0.426680654,0.769882202
2.67348,0.093200579,0.319883943,0.817843854
2.68348,0.100897484,0.216106668,0.845559657
2.69348,0.122434847,0.147969007,0.85583967
2.70348,0.156608388,0.115296453,0.849137604
2.71348,0.183992609,0.098035142,0.825191677
2.723481563,0.191881493,0.078923792,0.794438958
2.733481563,0.17898351,0.080512039,0.768922269
2.74348,0.147951558,0.100338981,0.755430877
2.75348,0.097703531,0.084683374,0.758869171
2.76348,0.049794242,0.027541295,0.762028217
2.77348,0.030438542,-0.025586527,0.752271831
2.78348,0.049619712,-0.091943942,0.722095072
2.793481563,0.098995075,-0.15393804,0.665057719
2.803481563,0.166504413,-0.180571765,0.57992053
2.81348,0.218131244,-0.155613557,0.485201538
2.82348,0.248098552,-0.059690259,0.415144026
2.83348,0.259966791,0.113708198,0.384129524
2.84348,0.253247261,0.318889111,0.391599536
2.85348,0.232303321,0.452947855,0.414882213
2.863481563,0.201986954,0.474275768,0.41928044
2.873481563,0.168441728,0.417866737,0.390814126
2.88348,0.145246297,0.334823966,0.335661709
2.89348,0.130690247,0.235200569,0.258256376
2.90348,0.124651417,0.166766211,0.180379778
2.91348,0.120794237,0.157934844,0.10478957
2.92348,0.110636421,0.169506371,0.044470988
2.933481563,0.089256138,0.170413941,0.003961897
2.943481563,0.063163467,0.161477864,-0.013543755
2.953481563,0.048502699,0.139102742,-0.01155408
2.96348,0.050614547,0.123377323,-0.01288053
2.97348,0.053808499,0.123098075,-0.046251226
2.98348,0.043458696,0.132034153,-0.100845121
2.99348,0.022619467,0.152279973,-0.153170094
3.003481563,-0.007278023,0.191322997,-0.190188527
3.013481563,-0.0421497,0.235410005,-0.195686311
3.023481563,-0.070319317,0.253177464,-0.174550384
3.03348,-0.094020888,0.234519884,-0.138404608
3.04348,-0.103951812,0.205739409,-0.111299649
3.05348,-0.096830867,0.183783174,-0.100967295
3.06348,-0.08117526,0.15358898,-0.10791371
3.073481563,-0.071506143,0.1097463,-0.125820786
3.083481563,-0.076654859,0.055588737,-0.142034888
3.093481563,-0.095975652,-0.001047197,-0.143867493
3.10348,-0.11269591,-0.046687558,-0.128089711
3.11348,-0.115505889,-0.061365776,-0.100827672
3.12348,-0.104597583,-0.049759336,-0.077998765
3.13348,-0.091402896,-0.037524577,-0.072605699
3.143478438,-0.092938781,-0.025237462,-0.087318823
3.15348,-0.109187797,-0.004817109,-0.099989913
3.16348,-0.133849293,0.031991884,-0.094561942
3.17348,-0.160692468,0.078923792,-0.066566855
3.18348,-0.175754651,0.131353483,-0.008115781
3.19348,-0.173066854,0.157411247,0.070947632
3.20348,-0.156713113,0.147811934,0.153501704
3.21348,-0.131126583,0.118752204,0.230139121
3.223481563,-0.087318823,0.073024578,0.30639255
3.23348,-0.028553586,0.018308504,0.37103954
3.24348,0.036041047,-0.031293754,0.406906068
3.25348,0.09285152,-0.083339475,0.405736685
3.26348,0.13130112,-0.14084807,0.370446146
3.27348,0.141144782,-0.167865768,0.305223167
3.28348,0.115628064,-0.15688765,0.254364282
3.293481563,0.064280473,-0.12042772,0.25258404
3.303481563,0.002181662,-0.044121925,0.293128043
3.31348,-0.059445914,0.036721729,0.357635409
3.32348,-0.122522116,0.089744829,0.407831073
3.33348,-0.189961642,0.077597335,0.42575562
3.34348,-0.272917122,0.022584561,0.418739378
3.35348,-0.333270609,-0.04436627,0.409366965
3.363481563,-0.341578394,-0.069149941,0.421601743
3.373481563,-0.301889598,-0.057037361,0.467626065
3.38348,-0.234240636,-0.024539329,0.536741078
3.39348,-0.159226388,0.060545471,0.585435808
3.40348,-0.132924274,0.163118467,0.599660218
3.41348,-0.183573723,0.24178046,0.604442418
3.42348,-0.284767926,0.276093632,0.627271354
3.433481563,-0.392542005,0.285762757,0.678880692
3.443481563,-0.471064359,0.274662465,0.747838676
3.453481563,-0.504627049,0.258012027,0.803008556
3.46348,-0.48582986,0.251432121,0.825942159
3.47348,-0.448828876,0.260944188,0.797999442
3.48348,-0.429909497,0.290091187,0.727697551
3.49348,-0.446158528,0.334771603,0.662980795
3.50348,-0.500612795,0.381110102,0.660764217
3.513481563,-0.582451284,0.389190972,0.726318777
3.523481563,-0.657797158,0.337564141,0.848963022
3.53348,-0.727173984,0.283197135,0.977174938
3.54348,-0.76698494,0.257383704,1.053306222
3.55348,-0.791000664,0.284418851,1.052032113
3.56348,-0.811421037,0.366344601,0.973806441
3.57348,-0.84309876,0.478691459,0.855647683
3.583481563,-0.894743025,0.593656301,0.759462595
3.593481563,-0.967540741,0.624461353,0.747733951
3.60348,-1.032728791,0.543024302,0.857131183
3.61348,-1.070235848,0.375682116,1.068350911
3.62348,-1.053306222,0.17067574,1.31845665
3.63348,-0.982480764,0.052988198,1.518349171
3.643478438,-0.882874787,0.041713368,1.583816528
3.653481563,-0.779254615,0.142383963,1.503967643
3.663481563,-0.721135139,0.376450062,1.323081732
3.67348,-0.764349461,0.578716278,1.142981172
3.68348,-0.894882679,0.657849491,1.036027431
3.69348,-1.012151361,0.607898176,1.068612695
3.70348,-1.071771741,0.498186767,1.197365642
3.71348,-1.078788042,0.406522095,1.335927367
3.723481563,-1.054929376,0.345994055,1.403052688
3.733481563,-1.043026209,0.326271862,1.383522511
3.74348,-1.041926622,0.37899825,1.319311857
3.75348,-1.043689489,0.490070999,1.248643398
3.76348,-1.035242081,0.568191946,1.203526735
3.77348,-0.985063851,0.625578344,1.19158864
3.78348,-0.872577369,0.655929625,1.191937685
3.793481563,-0.708656013,0.636521578,1.164535999
3.803481563,-0.553740621,0.556410968,1.057599664
3.81348,-0.473577648,0.457817316,0.875526965
3.82348,-0.478255123,0.389662206,0.658844352
3.83348,-0.548207939,0.345836997,0.452040285
3.84348,-0.64547509,0.342363775,0.284733027
3.85348,-0.748449564,0.368281931,0.154007852
3.863481563,-0.84388417,0.321489662,0.076689765
3.873481563,-0.873973608,0.214727864,0.066252701
3.88348,-0.791611552,0.129451066,0.100129537
3.89348,-0.618178189,0.092327915,0.136153132
3.90348,-0.414760053,0.119747043,0.124092907
3.91348,-0.260507852,0.177412719,0.007941248
3.92348,-0.205303073,0.255376577,-0.174620196
3.933481563,-0.238411978,0.365524292,-0.288694918
3.943481563,-0.299987197,0.461028725,-0.360864282
3.953481563,-0.330478102,0.536688745,-0.380342156
3.96348,-0.323165148,0.575749218,-0.364180386
3.97348,-0.296182364,0.548696637,-0.331193686
3.98348,-0.251833558,0.485026985,-0.31220451
3.99348,-0.185580865,0.417447835,-0.320669353
4.00348,-0.10587167,0.364110589,-0.351875842
4.013481563,-0.024783675,0.319499969,-0.411670804
4.023481563,0.043825217,0.271904856,-0.468620896
4.03348,0.095050633,0.25963518,-0.521277487
4.04348,0.115278997,0.257662952,-0.572485447
4.05348,0.109624133,0.235636905,-0.614792228
4.06348,0.086830132,0.214954749,-0.642752409
4.07348,0.057019908,0.193522111,-0.648058176
4.083481563,0.035098571,0.154199839,-0.619591892
4.093481563,0.014084807,0.110357165,-0.570216537
4.10348,-0.00275762,0.075433128,-0.500036836
4.11348,-0.011588986,0.043004911,-0.418512493
4.12348,-0.006597345,-0.014014994,-0.332066357
4.13348,0.023596851,-0.090547681,-0.233664677
4.14348,0.084281951,-0.162734494,-0.134477615
4.153481563,0.157760307,-0.214884937,-0.055326939
4.16348,0.217921808,-0.23256512,-0.003839724
4.17348,0.246126324,-0.226578638,0.021624628
4.18348,0.239354447,-0.20366247,0.041503929
4.19348,0.201550618,-0.163903862,0.068067841
4.20348,0.136746541,-0.116692714,0.098139867
4.21348,0.070982538,-0.089849547,0.137165427
4.223481563,0.038467057,-0.098803088,0.18488273
4.23348,0.03721042,-0.105819315,0.22095868
4.24348,0.05284857,-0.120131008,0.244956955
4.25348,0.076515235,-0.146921813,0.258622885
4.26348,0.097284652,-0.174463108,0.265516937
4.27348,0.103550382,-0.199438766,0.259670079
4.28348,0.100583322,-0.222372398,0.239302099
4.293481563,0.093619458,-0.231954262,0.216490641
4.30348,0.087388635,-0.209945649,0.191672057
4.31348,0.08709193,-0.161600038,0.168878064
4.32348,0.093619458,-0.118106432,0.1425585
4.33348,0.099134699,-0.099623397,0.113551117
4.34348,0.096865773,-0.119223438,0.090024084
4.35348,0.080651663,-0.161006629,0.073216565
4.363481563,0.05487315,-0.204273328,0.061557762
4.373481563,0.027925268,-0.23677136,0.050981067
4.383481563,0.009407325,-0.258779973,0.039741147
4.39348,0.000349066,-0.27831021,0.02539454
4.40348,-0.004642576,-0.278135657,0.008412487
4.41348,-0.01160644,-0.255690724,-0.003071779
4.42348,-0.02953097,-0.221587002,-0.011955505
4.433481563,-0.070092425,-0.184376583,-0.018622663
4.443481563,-0.127112329,-0.134617239,-0.011414453
4.453481563,-0.188879535,-0.082519166,0.00986111
4.46348,-0.231029227,-0.047036622,0.043057274
4.47348,-0.254207194,-0.032829642,0.087336272
4.48348,-0.244625345,-0.061557762,0.133412972
4.49348,-0.199630752,-0.112591192,0.173887148
4.50348,-0.126134947,-0.173206478,0.200206712
4.513481563,-0.04145157,-0.238638863,0.212528735
4.523481563,0.047071531,-0.291330367,0.20751965
4.53348,0.106866509,-0.326411486,0.195860848
4.54348,0.128822759,-0.337581575,0.19001399
4.55348,0.115313902,-0.312640816,0.19444713
4.56348,0.081157811,-0.253002942,0.21640338
4.57348,0.040212385,-0.172979578,0.241396487
4.583481563,0.000506145,-0.094963364,0.261136174
4.593481563,-0.02953097,-0.036320303,0.269147217
4.60348,-0.048904125,-0.005427974,0.263422549
4.61348,-0.059690259,-0.013020156,0.24588199
4.62348,-0.065641835,-0.056793015,0.219632238
4.63348,-0.070022613,-0.125105202,0.194132969
4.643478438,-0.064821526,-0.200782672,0.175876826
4.653481563,-0.043284167,-0.246370673,0.164148211
4.663481563,-0.009494592,-0.25155431,0.154950336
4.67348,0.026511552,-0.218253419,0.14028956
4.68348,0.05820673,-0.167446882,0.119659774
4.69348,0.074892081,-0.114650682,0.096446894
4.70348,0.073408552,-0.084194683,0.077126101
4.71348,0.066339962,-0.066374868,0.068224922
4.723481563,0.061435588,-0.058887407,0.064646997
4.73348,0.065083325,-0.067264989,0.057875119
4.74348,0.078330375,-0.088191487,0.036075957
4.75348,0.102555543,-0.08817403,-0.008255407
4.76348,0.135926247,-0.064961158,-0.070790552
4.77348,0.16554448,-0.029391345,-0.144844875
4.78348,0.180746302,0.013439035,-0.218672305
4.793481563,0.18079865,0.054960418,-0.27715829
4.803481563,0.16622515,0.075468034,-0.314089447
4.81348,0.142226875,0.064577185,-0.331368208
4.82348,0.119014002,0.036233034,-0.340426475
4.83348,0.099623397,0.008237954,-0.344719976
4.84348,0.090530232,-0.011536626,-0.346622378
4.85348,0.095137894,-0.023387412,-0.348402619
4.863481563,0.113324225,-0.041783184,-0.347023815
4.873481563,0.142157063,-0.074333571,-0.344667614
4.883481563,0.173450828,-0.114144534,-0.336708903
4.89348,0.211376831,-0.145228848,-0.324264735
4.90348,0.247278243,-0.159400925,-0.305432618
4.91348,0.267489165,-0.171635672,-0.279182851
4.92348,0.271974653,-0.175894275,-0.250088215
4.933481563,0.261869192,-0.174707457,-0.214535877
4.943481563,0.244468272,-0.179158047,-0.173415914
4.953481563,0.227486208,-0.199107155,-0.120898955
4.96348,0.22664845,-0.235706717,-0.063023835
4.97348,0.248150915,-0.273580372,-0.006928957
4.98348,0.29059732,-0.300598055,0.030787608
4.99348,0.33780849,-0.313583314,0.04988151
5.00348,0.386538059,-0.326044947,0.059166662
5.013481563,0.436489403,-0.332397968,0.066898473
5.023481563,0.481309444,-0.33178708,0.077981308
5.03348,0.51530844,-0.332380503,0.093619458
5.04348,0.54054594,-0.324509054,0.106482536
5.05348,0.557527959,-0.314979583,0.115802594
5.06348,0.56548667,-0.305450082,0.110828407
5.07348,0.568279207,-0.290492594,0.097895518
5.083481563,0.567074955,-0.282917857,0.077614792
5.093481563,0.56285125,-0.279025793,0.055344392
5.10348,0.560756862,-0.284715563,0.026843164
5.11348,0.565504134,-0.300318807,-0.008709193
5.12348,0.573794425,-0.310371906,-0.057543505
5.13348,0.57707566,-0.309516698,-0.113655843
5.143478438,0.576848745,-0.300336242,-0.167307258
5.153481563,0.578838468,-0.279462129,-0.207816347
5.16348,0.571281195,-0.252200067,-0.229859859
5.17348,0.55295521,-0.234397724,-0.226386651
5.18348,0.526077151,-0.23518312,-0.192143291
5.19348,0.503597319,-0.254992604,-0.127391577
5.20348,0.499670297,-0.28160888,-0.042812925
5.21348,0.506564379,-0.293529481,0.029373892
5.223481563,0.515587687,-0.271328896,0.084072508
5.233481563,0.534280181,-0.223245069,0.113202058
5.24348,0.556952,-0.178041041,0.112608641
5.25348,0.585104167,-0.172106922,0.089570299
5.26348,0.62556088,-0.201027021,0.046495572
5.27348,0.670066833,-0.266703755,-0.004782202
5.28348,0.710436285,-0.337738663,-0.045797441
5.293481563,0.74195689,-0.40221113,-0.07969173
5.303481563,0.751259506,-0.462896228,-0.105557516
5.31348,0.742201269,-0.490524799,-0.13074261
5.32348,0.728936732,-0.492235214,-0.160325944
5.33348,0.707416832,-0.467695892,-0.195459425
5.34348,0.687136114,-0.444552809,-0.234938771
5.35348,0.668269098,-0.431078881,-0.290649682
5.363481563,0.641216516,-0.442074448,-0.357967019
5.37348,0.61121428,-0.469755381,-0.429542989
5.383481563,0.590200543,-0.512393773,-0.498937279
5.39348,0.586779714,-0.561769128,-0.559587479
5.40348,0.594511509,-0.615437984,-0.611982226
5.41348,0.606606662,-0.668408751,-0.655039549
5.42348,0.613326132,-0.715637326,-0.69132489
5.433481563,0.597077131,-0.751783133,-0.73535955
5.443481563,0.515378296,-0.778189957,-0.791576624
5.453481563,0.375769377,-0.785555243,-0.834843338
5.46348,0.218393043,-0.749025524,-0.85777694
5.47348,0.075433128,-0.676105618,-0.85765481
5.48348,-0.029827677,-0.614600241,-0.842487872
5.49348,-0.06462954,-0.600218713,-0.81147337
5.50348,-0.011431906,-0.64226371,-0.756216228
5.513481563,0.100722954,-0.710471153,-0.691726327
5.523481563,0.244311184,-0.746285319,-0.648773789
5.53348,0.32869786,-0.73045522,-0.658652365
5.54348,0.31426397,-0.701535106,-0.705846071
5.55348,0.222372398,-0.635072947,-0.754523277
5.56348,0.093706727,-0.53122586,-0.773617208
5.57348,-0.014695672,-0.433522344,-0.737139821
5.583481563,-0.05745624,-0.385455966,-0.651147425
5.593481563,-0.024644049,-0.373919338,-0.548207939
5.60348,0.065990902,-0.374757081,-0.453820497
5.61348,0.184289321,-0.39161697,-0.378335029
5.62348,0.311192214,-0.410571247,-0.30527553
5.63348,0.446559936,-0.399296433,-0.219998747
5.643478438,0.576202989,-0.361091167,-0.146188781
5.653481563,0.650100231,-0.327860087,-0.118612573
5.663481563,0.644270837,-0.303687274,-0.1449496
5.67348,0.562048376,-0.252810955,-0.211900428
5.68348,0.4365592,-0.170239419,-0.273248732
5.69348,0.314054549,-0.045238934,-0.299306512
5.70348,0.238324702,0.130969509,-0.2870543
5.71348,0.209387153,0.301034391,-0.256109625
5.723481563,0.217223674,0.371318787,-0.224274814
5.733481563,0.236143053,0.3114191,-0.214378789
5.74348,0.242373869,0.188931897,-0.272114277
5.75348,0.219736949,0.024678955,-0.419716775
5.76348,0.160901904,-0.200555786,-0.631285608
5.77348,0.089622654,-0.423783392,-0.831370115
5.78348,0.044645522,-0.556288779,-0.976808429
5.793481563,0.036721729,-0.575417578,-1.054719925
5.803481563,0.06775368,-0.468638361,-1.065855145
5.81348,0.116710164,-0.306322724,-1.034805655
5.82348,0.154112577,-0.177203283,-0.996774971
5.83348,0.157673046,-0.129067093,-0.981974602
5.84348,0.097459182,-0.191637158,-1.007421494
5.85348,-0.010210176,-0.321280211,-1.046796083
5.863481563,-0.129904851,-0.446036339,-1.081929564
5.873481563,-0.234013751,-0.55319953,-1.098318219
5.883481563,-0.290876567,-0.627620399,-1.084076405
5.89348,-0.284261763,-0.648948312,-1.053149104
5.90348,-0.22891739,-0.610725582,-1.02662015
5.913520625,-0.156608388,-0.5426054,-1.014612198
5.92348,-0.087632984,-0.482007563,-1.011802316
5.933481563,-0.048415434,-0.491624355,-1.015118361
5.943481563,-0.050649453,-0.591666639,-1.017806172
5.953481563,-0.087126836,-0.741782367,-1.021558642
5.96348,-0.133046448,-0.87653923,-1.031838655
5.97348,-0.185284153,-0.938899875,-1.065977335
5.98348,-0.249233022,-0.903103173,-1.139193892
5.99348,-0.330739886,-0.798365951,-1.238154054
6.00348,-0.418268144,-0.65455085,-1.342507243
6.013481563,-0.497488648,-0.541313887,-1.422705173
6.023481563,-0.564072967,-0.510700762,-1.455604553
6.03348,-0.612785101,-0.509339452,-1.443317533
6.04348,-0.639942408,-0.526967287,-1.409981728
6.05348,-0.655266404,-0.554910004,-1.380939364
6.06348,-0.66856581,-0.557301104,-1.385721564
6.07348,-0.702023804,-0.537456691,-1.425602436
6.083481563,-0.757333279,-0.528084278,-1.473860741
6.093481563,-0.815138578,-0.541488409,-1.494996667
6.10348,-0.852436244,-0.555695355,-1.4729532
6.11348,-0.861913383,-0.575051069,-1.413315296
6.12348,-0.856851935,-0.608718455,-1.347324371
6.13348,-0.861267626,-0.640832543,-1.308455825
6.143478438,-0.881984711,-0.652718246,-1.307286501
6.153481563,-0.914028943,-0.630151153,-1.322819948
6.16348,-0.932913363,-0.547125816,-1.328265429
6.17348,-0.925617933,-0.428495795,-1.301875949
6.18348,-0.888896167,-0.310563892,-1.228519797
6.19348,-0.829764426,-0.220749244,-1.12730813
6.20348,-0.77209878,-0.180868477,-1.023635626
6.21348,-0.739304006,-0.205390349,-0.94003433
6.223481563,-0.730542481,-0.276739419,-0.878354371
6.233481563,-0.704414904,-0.313391328,-0.809553504
6.24348,-0.618823946,-0.2631782,-0.718377531
6.25348,-0.4943645,-0.181252435,-0.624775529
6.26348,-0.391145736,-0.164427474,-0.552606165
6.27348,-0.335975885,-0.182980314,-0.491135657
6.28348,-0.318574935,-0.119432881,-0.410920322
6.293481563,-0.339763254,-0.003473205,-0.2846632
6.303481563,-0.397847801,0.047176249,-0.128857657
6.31348,-0.464344859,0.076480329,0.058590703
6.32348,-0.48389253,0.177412719,0.249110848
6.33348,-0.443802327,0.28194049,0.404322982
6.34348,-0.383379012,0.29138273,0.503649652
6.35348,-0.319726855,0.222564384,0.573305726
6.363481563,-0.280264974,0.206472456,0.617794216
6.373481563,-0.304891557,0.274802089,0.658757091
6.38348,-0.403973907,0.343707681,0.724137127
6.39348,-0.5387308,0.405370176,0.843011498
6.40348,-0.635823429,0.504661977,1.020825624
6.41348,-0.652002633,0.604547143,1.219182253
6.42348,-0.584789991,0.663923264,1.36352098
6.43348,-0.471378535,0.727348506,1.415828586
6.443481563,-0.36135298,0.807336926,1.392720342
6.453481563,-0.290824205,0.899123788,1.352874517
6.46348,-0.294611573,0.976860762,1.387554169
6.47348,-0.352224886,1.01866138,1.546693325
6.48348,-0.406120658,0.985360503,1.818947196
6.49348,-0.407342404,0.890606582,2.128359318
6.50348,-0.341857642,0.849888086,2.364223003
6.513481563,-0.236282676,0.953770101,2.448976278
6.523481563,-0.121771619,1.138041973,2.393928528
6.53348,-0.028134707,1.32323885,2.263325453
6.54348,0.005916666,1.438587666,2.158675671
6.55348,-0.019634955,1.4468081,2.182691336
6.56348,-0.066497043,1.395181298,2.33493638
6.57348,-0.101613067,1.288367152,2.543119192
6.583481563,-0.099064887,1.203369617,2.718647003
6.59348,-0.050492376,1.218606353,2.757986784
6.60348,0.015917404,1.350623012,2.622741222
6.61348,0.062325709,1.522450686,2.355967522
6.62348,0.048136182,1.568405271,2.060099363
6.63348,-0.024260076,1.440594792,1.869107962
6.643478438,-0.085486226,1.266725063,1.839629412
6.653483125,-0.083007857,1.096904516,1.926564217
6.66348,-0.00577704,0.940784812,2.040220022
6.67348,0.133081362,0.87653923,2.084691048
6.68348,0.277646989,0.935932815,1.996185422
6.69348,0.374285847,1.03230989,1.787740707
6.70348,0.393501937,1.060461998,1.519919991
6.71348,0.344266206,1.032065511,1.273549318
6.723481563,0.259390831,0.961781144,1.105194807
6.733481563,0.17715092,0.871198535,1.02171576
6.74348,0.129276544,0.78735292,0.990334749
6.75348,0.131824717,0.703594565,0.962601423
6.76348,0.178878799,0.616659701,0.91546011
6.77348,0.259862065,0.53736943,0.852977335
6.78348,0.353603691,0.473682344,0.777945578
6.793481563,0.432771832,0.422387123,0.686333299
6.80348,0.458358377,0.370131969,0.570792496
6.81348,0.401827157,0.3061831,0.444203734
6.82348,0.283912718,0.246300861,0.327476114
6.83348,0.157865033,0.184376583,0.247348055
6.84348,0.032428216,0.119485237,0.195476875
6.85348,-0.040910516,0.101421081,0.161582574
6.863481563,-0.03754203,0.102031946,0.126361832
6.873514375,0.032271139,0.116413459,0.065118231
6.883481563,0.13847442,0.143692955,-0.019757127
6.89348,0.245690003,0.177325457,-0.132330865
6.90348,0.31401965,0.214623138,-0.259233743
6.91348,0.320599526,0.218951553,-0.378369927
6.92348,0.258745074,0.167132735,-0.480733484
6.93348,0.141633466,0.075694926,-0.559709609
6.943481563,0.005078908,-0.032218777,-0.607112765
6.953481563,-0.11787954,-0.104580127,-0.630727112
6.96348,-0.203069061,-0.15723671,-0.634846032
6.97348,-0.242565855,-0.20104447,-0.636905551
6.98348,-0.233542502,-0.24473007,-0.655144215
6.99348,-0.185545951,-0.32539919,-0.696875036
7.00348,-0.127932638,-0.38184312,-0.779621124
7.013481563,-0.116535634,-0.409070283,-0.931464791
7.023481563,-0.169785634,-0.420083284,-1.101512194
7.03348,-0.266633958,-0.408459395,-1.251872301
7.04348,-0.383501202,-0.380778491,-1.356277943
7.05348,-0.479284853,-0.341875106,-1.400242805
7.06348,-0.525187016,-0.328313887,-1.399038434
7.07348,-0.525588453,-0.354197115,-1.407014608
7.083481563,-0.507821023,-0.417570025,-1.4830935
7.09348,-0.50529027,-0.463123113,-1.630626202
7.10348,-0.541052043,-0.479023069,-1.861690402
7.11348,-0.613535583,-0.501031637,-2.105739832
7.12348,-0.69746846,-0.514435768,-2.281843424
7.13348,-0.764576375,-0.523563862,-2.335145712
7.143478438,-0.789394975,-0.590584517,-2.258264065
7.153481563,-0.736110091,-0.706474364,-2.06338048
7.163481563,-0.606048107,-0.83023566,-1.816713214
7.17348,-0.439648449,-0.938725352,-1.601636291
7.18348,-0.284802824,-0.986111045,-1.472464442
7.19348,-0.187012032,-0.951762915,-1.454330444
7.20348,-0.175178692,-0.840306222,-1.494158864
7.21348,-0.220592156,-0.667710602,-1.521124244
7.223481563,-0.287420809,-0.464833528,-1.497701883
7.233481563,-0.341595829,-0.327388853,-1.406176925
7.24348,-0.313722938,-0.295885652,-1.241923928
7.25348,-0.235252932,-0.33178708,-1.08418107
7.26348,-0.172298908,-0.399418592,-1.036463737
7.27348,-0.153082833,-0.410937756,-1.076047897
7.28348,-0.183695897,-0.355383933,-1.164710522
7.293481563,-0.265080601,-0.285780221,-1.254141212
7.30348,-0.349694163,-0.223384693,-1.298908949
7.313481563,-0.402734727,-0.175964087,-1.263915062
7.32348,-0.409820765,-0.180432141,-1.15472734
7.33348,-0.359328389,-0.19240509,-1.016706705
7.34348,-0.271835029,-0.16441001,-0.906122565
7.35348,-0.175196156,-0.123010807,-0.845612049
7.363481563,-0.083322018,-0.033527777,-0.81522584
7.373481563,0.008831366,0.109100528,-0.783059418
7.383481563,0.078103483,0.244363546,-0.740211606
7.39348,0.135489911,0.372959405,-0.663277447
7.40348,0.200084552,0.499356151,-0.533110797
7.41348,0.274522841,0.588821709,-0.382349283
7.42348,0.358124107,0.646469951,-0.252339691
7.43348,0.450137854,0.690085709,-0.164252937
7.443481563,0.535501897,0.737279415,-0.126902893
7.453481563,0.603482485,0.84025383,-0.117687553
7.46348,0.643782139,1.01454246,-0.099047437
7.47348,0.65764004,1.165146947,-0.069882981
7.48348,0.651444137,1.292137027,-0.049602259
7.49348,0.622803271,1.365493298,-0.047682393
7.50348,0.568174481,1.311178565,-0.072605699
7.513481563,0.509566307,1.163576126,-0.120235734
7.523481563,0.453872859,1.014839172,-0.188024312
7.53348,0.416924238,0.811211586,-0.231291026
7.54348,0.361300617,0.625630736,-0.293040782
7.55348,0.289916635,0.525187016,-0.351928174
7.56348,0.216316104,0.474293232,-0.363604456
7.57348,0.149068564,0.404078633,-0.313897461
7.583481563,0.090530232,0.298590928,-0.23198916
7.593481563,0.029286625,0.195808485,-0.151861101
7.60348,-0.036564648,0.096028015,-0.08339183
7.61348,-0.102991879,-0.005393067,-0.029007372
7.62348,-0.149923787,-0.086131997,0.007278023
7.63348,-0.175056517,-0.169401661,0.042551126
7.643478438,-0.163118467,-0.22869049,0.080442227
7.653481563,-0.102381013,-0.239790782,0.136380032
7.663481563,-0.000244346,-0.176470235,0.198862821
7.67348,0.111177474,-0.067910761,0.234572247
7.68348,0.198251948,0.065659285,0.217258587
7.69348,0.229249001,0.187221467,0.155962616
7.70348,0.204378054,0.268518895,0.076602504
7.71348,0.13880603,0.295850754,0.002670354
7.723481563,0.045710173,0.270002425,-0.039287362
7.73348,-0.047315877,0.226997524,-0.040578905
7.74348,-0.105016463,0.188704997,-0.012950343
7.75348,-0.102503188,0.160884455,0.010053096
7.76348,-0.040352013,0.159261286,0.016615534
7.77348,0.050370201,0.191008836,-0.000244346
7.78348,0.154269651,0.251257598,-0.037262779
7.793481563,0.229755148,0.3018547,-0.09063495
7.803481563,0.264801353,0.323653847,-0.144443452
7.813481563,0.249075934,0.303146243,-0.189961642
7.82348,0.190048903,0.264242858,-0.219352975
7.83348,0.111352004,0.246807009,-0.240698352
7.84348,0.028291788,0.250734001,-0.250611812
7.85348,-0.037419859,0.282202274,-0.250489652
7.863481563,-0.079901174,0.34712854,-0.230784893
7.873481563,-0.087318823,0.421305031,-0.193365023
7.883481563,-0.071418874,0.462931126,-0.144600525
7.89348,-0.044750243,0.457450807,-0.087615527
7.90348,-0.022148227,0.418913931,-0.029600784
7.91348,-0.00991347,0.358001947,0.010838495
7.92348,-0.005358161,0.288886905,0.025848325
7.93348,-0.006422812,0.216351017,0.016632987
7.943481563,-0.012077678,0.165387392,-0.003106686
7.953481563,-0.019547688,0.14882423,-0.022340214
7.96348,-0.027785642,0.180519402,-0.033196162
7.97348,-0.019338248,0.255254388,-0.023980824
7.98348,0.01314233,0.355541021,-0.009215338
7.99348,0.057910025,0.44270277,-0.011257374
8.00348,0.099291779,0.487470448,-0.021764256
8.013481563,0.112503923,0.459719718,-0.038240165
8.023481563,0.092903875,0.375525028,-0.054140113
8.03348,0.053791046,0.273388386,-0.059794981
8.04348,0.013910274,0.188111588,-0.06021386
8.05348,0.003874631,0.13756685,-0.059777528
8.06348,0.046809729,0.143186808,-0.05766568
8.07348,0.113149695,0.203592658,-0.053319808
8.083481563,0.122801363,0.292482287,-0.020891592
8.093481563,0.035290558,0.371772587,0.000401426
8.10348,-0.149086028,0.402036577,-0.019669861
8.113487813,-0.276285619,0.362801582,-0.073391095
8.12348,-0.30127874,0.304472685,-0.133744583
8.13348,-0.221796438,0.212476388,-0.167795956
8.143478438,-0.074124135,0.081821032,-0.172909766
8.153481563,0.088488191,-0.092799157,-0.166033179
8.16348625,0.210224912,-0.285378784,-0.141441479
8.17348,0.216804802,-0.463000953,-0.119659774
8.18348,0.076078899,-0.629662454,-0.097145028
