Time (s),Acceleration x (m/s^2),Acceleration y (m/s^2),Acceleration z (m/s^2),Gyroscope x (rad/s),Gyroscope y (rad/s),Gyroscope z (rad/s)
0,-1.445025325,0.575326681,9.491132736,-0.194464579,0.058625609,-0.240331844
0.002,-1.442745924,0.586033523,9.493871689,-0.198862821,0.061400682,-0.246911734
0.004,-1.434768438,0.615118265,9.494647026,-0.202545464,0.064751714,-0.253386915
0.006,-1.414532661,0.640132964,9.496170044,-0.206577167,0.068940505,-0.260438025
0.008,-1.396863461,0.658367217,9.488183022,-0.210748509,0.074124135,-0.26771605
0.01,-1.360768437,0.657514811,9.473320007,-0.214640588,0.079395026,-0.274156332
0.012,-1.34931457,0.658721507,9.474431038,-0.218759567,0.084369212,-0.280561686
0.014,-1.327757239,0.666555345,9.484323502,-0.222005874,0.090198614,-0.286652863
0.016,-1.307808757,0.657754302,9.496552467,-0.224606425,0.097616263,-0.292272836
0.018,-1.283186793,0.660531521,9.51436615,-0.226910248,0.105679683,-0.298049867
0.02,-1.255414009,0.648244441,9.533337593,-0.228166893,0.113376588,-0.304490149
0.022,-1.245932937,0.651117504,9.541180611,-0.228376329,0.120933861,-0.312483758
0.024,-1.238951564,0.646013081,9.541104317,-0.227817833,0.128752932,-0.320791513
0.026,-1.223312616,0.617148578,9.553908348,-0.226962611,0.137601763,-0.328278989
0.028,-1.20913887,0.593225718,9.571749687,-0.225985229,0.147846848,-0.336045682
0.03,-1.194122434,0.53862834,9.582304001,-0.224013016,0.158318818,-0.344266206
0.032,-1.182208896,0.520240903,9.592627525,-0.221307755,0.168581352,-0.352975398
0.034,-1.152798533,0.512253821,9.608658791,-0.219579876,0.178756625,-0.361579865
0.036,-1.142541766,0.515806794,9.618724823,-0.21823597,0.188896984,-0.369817823
0.038,-1.131451726,0.547142148,9.619308472,-0.216438279,0.199962378,-0.378212839
0.04,-1.130551577,0.586052656,9.620630264,-0.215391085,0.212057501,-0.386363536
0.042,-1.132821321,0.632078767,9.626481056,-0.214640588,0.224554062,-0.39536944
0.044,-1.135043144,0.743801892,9.613743782,-0.214029729,0.236579374,-0.405038565
0.046,-1.142541766,0.822542369,9.600002289,-0.214082092,0.246527761,-0.414323717
0.048,-1.143365383,0.868999422,9.595395088,-0.213488668,0.255935073,-0.42348668
0.05,-1.128387213,0.953524351,9.587303162,-0.212912709,0.266075432,-0.432894021
0.052,-1.13611567,1.080637336,9.570016861,-0.213314146,0.275901645,-0.442388594
0.054,-1.133855581,1.118877411,9.565420151,-0.213802829,0.285570771,-0.451952994
0.056,-1.120515108,1.189879894,9.550767899,-0.214623138,0.294245064,-0.462459892
0.058,-1.131413579,1.247034311,9.550116539,-0.216228843,0.301557988,-0.472739875
0.06,-1.126481414,1.310662627,9.567000389,-0.217817083,0.308644027,-0.481972665
0.062,-1.105690241,1.337822556,9.57026577,-0.21879448,0.31562534,-0.491414905
0.064,-1.103133202,1.348280311,9.569327354,-0.219492599,0.322257578,-0.50063026
0.066,-1.102654457,1.350109458,9.572286606,-0.220417634,0.329064369,-0.509112537
0.068,-1.099197149,1.363813877,9.578329086,-0.221115768,0.334981054,-0.518240631
0.07,-1.093451023,1.363296747,9.580809593,-0.222023338,0.338663697,-0.527647913
0.072,-1.09291482,1.356487632,9.574508667,-0.223978102,0.342049629,-0.536200047
0.074,-1.102606416,1.340705037,9.579699516,-0.22539182,0.346901655,-0.544106364
0.076,-1.105795503,1.34374094,9.58646965,-0.226613551,0.352347076,-0.552065074
0.078,-1.103631258,1.341011524,9.589974403,-0.228044719,0.357094377,-0.559709609
0.08,-1.110210419,1.334863186,9.596716881,-0.22800982,0.361859113,-0.566935301
0.082,-1.131087899,1.351641774,9.602865219,-0.227032423,0.366955459,-0.573986411
0.084,-1.143260002,1.383714437,9.612968445,-0.226334304,0.371563137,-0.58095032
0.086,-1.153507233,1.402341485,9.611618042,-0.226037592,0.376903862,-0.588210881
0.088,-1.156552553,1.438197017,9.613026619,-0.225601256,0.383187026,-0.594319522
0.09,-1.176711798,1.488982797,9.619394302,-0.224798411,0.38889426,-0.599328637
0.092,-1.184220076,1.544365525,9.628214836,-0.223838478,0.394374609,-0.604843855
0.094,-1.195645094,1.593188047,9.635532379,-0.223140344,0.400395989,-0.610865235
0.096,-1.205499768,1.650122046,9.639410019,-0.223157793,0.406958431,-0.616485179
0.098,-1.208410978,1.698025227,9.646162033,-0.223803565,0.412456214,-0.621913195
0.1,-1.214808345,1.760810733,9.661619186,-0.224065363,0.416592628,-0.627917111
0.102,-1.240857244,1.860438347,9.694611549,-0.223855928,0.420170575,-0.633833766
0.104,-1.239238739,1.930301189,9.714378357,-0.224396974,0.423521608,-0.6390872
0.106,-1.235005856,1.954511404,9.720487595,-0.225566357,0.427099526,-0.644061387
0.108,-1.227440238,2.029066801,9.744353294,-0.226369202,0.430450559,-0.649245024
0.11,-1.209387898,2.073541403,9.760519028,-0.226055041,0.433068544,-0.654830098
0.112,-1.202253222,2.092417479,9.768390656,-0.225618705,0.435407281,-0.660572231
0.114,-1.170745492,2.126798153,9.781568527,-0.22607249,0.437938005,-0.665755868
0.116,-1.131403923,2.156112909,9.79591465,-0.226247028,0.440224409,-0.671009302
0.118,-1.091238737,2.166426897,9.813689232,-0.225374371,0.442737669,-0.676629245
0.12,-1.054435134,2.177813768,9.820010185,-0.223751202,0.445338219,-0.682388842
0.122,-1.005354047,2.192590714,9.826196671,-0.220574707,0.448601961,-0.689143241
0.124,-0.965974212,2.185762405,9.838722229,-0.216438279,0.453087479,-0.69631654
0.126,-0.921863377,2.189976215,9.843367577,-0.212860361,0.457119197,-0.703664362
0.128,-0.884370267,2.228158951,9.855079651,-0.209195167,0.461918831,-0.711378753
0.13,-0.843678355,2.269693613,9.882834435,-0.205180913,0.46797514,-0.71862185
0.132,-0.809757352,2.299793482,9.908231735,-0.201323733,0.473595083,-0.725690424
0.134,-0.788879871,2.333781719,9.916812897,-0.196297184,0.478726357,-0.733596802
0.136,-0.765962601,2.346767902,9.923716545,-0.191096097,0.483665645,-0.742201269
0.138,-0.735900998,2.358757973,9.937804222,-0.187396005,0.488186032,-0.750735939
0.14,-0.731045544,2.373851061,9.944643021,-0.183050126,0.492235214,-0.758956432
0.142,-0.726075172,2.385429382,9.963010788,-0.178442463,0.495795667,-0.766723156
0.144,-0.723001063,2.383791685,9.981273651,-0.174672544,0.49881509,-0.774297893
0.146,-0.729733527,2.392276764,10.00104046,-0.170605928,0.502253413,-0.78211695
0.148,-0.737950444,2.406239748,10.02921486,-0.166434601,0.504906297,-0.791297376
0.15,-0.747441053,2.443359375,10.05112648,-0.162839219,0.506302536,-0.801036298
0.152,-0.768423855,2.483495951,10.0720911,-0.158842415,0.508449316,-0.810670555
0.154,-0.774236918,2.535162687,10.08891678,-0.153746054,0.510910213,-0.819973111
0.156,-0.775204241,2.597756863,10.11366272,-0.147567585,0.513179183,-0.829432845
0.158,-0.80174154,2.669343233,10.13858223,-0.141266942,0.515360832,-0.839590609
0.16,-0.805897892,2.746771812,10.1675806,-0.13459979,0.517193437,-0.849416852
0.162,-0.813980699,2.805506229,10.18268394,-0.127461389,0.518572211,-0.859085977
0.164,-0.812228143,2.867535353,10.19652176,-0.119834304,0.519444883,-0.869662643
0.166,-0.806951284,2.927467108,10.20698929,-0.111980327,0.521068037,-0.880274236
0.168,-0.805591404,2.976050377,10.19752693,-0.103742369,0.522673726,-0.890589178
0.17,-0.781199276,3.004713535,10.18704128,-0.094701566,0.523947835,-0.901741803
0.172,-0.743571997,3.049829721,10.17991638,-0.085346602,0.526059687,-0.912894487
0.174,-0.729417503,3.07076478,10.17644882,-0.076480329,0.528799832,-0.923436225
0.176,-0.691378415,3.103421688,10.17788601,-0.068783425,0.530876815,-0.933733702
0.178,-0.656499684,3.128608704,10.19116879,-0.060894538,0.532971203,-0.943908989
0.18,-0.64370507,3.140579939,10.19611073,-0.052639131,0.535414636,-0.953735173
0.182,-0.609362602,3.153632879,10.19671345,-0.044558257,0.537351966,-0.964050055
0.184,-0.582595468,3.168879032,10.20152187,-0.036529742,0.539394021,-0.974574387
0.186,-0.565472126,3.203116179,10.21461201,-0.029146999,0.541488409,-0.98452276
0.188,-0.542344093,3.223399878,10.22299194,-0.022671826,0.543617725,-0.994575858
0.19,-0.504008174,3.231980801,10.25108147,-0.016563175,0.546043694,-1.004663825
0.192,-0.492774606,3.240370035,10.2628603,-0.010297443,0.548940957,-1.014455199
0.194,-0.468190908,3.242457867,10.27526283,-0.003647738,0.551384389,-1.023810148
0.196,-0.447303921,3.244478464,10.29034615,0.002216568,0.553321719,-1.032658935
0.198,-0.414101124,3.26354599,10.31154919,0.006806784,0.555992067,-1.041001678
0.2,-0.390992284,3.271264791,10.3275423,0.011205014,0.558662415,-1.049134851
0.202,-0.372528195,3.290811062,10.35915565,0.015830137,0.560076177,-1.057494998
0.204,-0.373428434,3.296269894,10.37244797,0.020245818,0.560634673,-1.065628171
0.206,-0.355040968,3.29731369,10.40180111,0.024556782,0.561193168,-1.07304585
0.208,-0.320085615,3.314599752,10.42608833,0.028221974,0.562048376,-1.078910232
0.21,-0.29013896,3.330612421,10.44415951,0.031276301,0.56239742,-1.084128737
0.212,-0.267336547,3.343512297,10.46709538,0.033475414,0.562222898,-1.091930389
0.214,-0.247052893,3.350809813,10.4984684,0.034051374,0.562153101,-1.101739049
0.216,-0.223857865,3.361880541,10.52801323,0.033649947,0.562432349,-1.109523296
0.218,-0.193987787,3.383495331,10.56978703,0.033492867,0.560966253,-1.117115378
0.22,-0.164721072,3.409707069,10.60915852,0.033108898,0.557545424,-1.125562787
0.222,-0.136105582,3.436771154,10.63301373,0.032323498,0.553618431,-1.133731008
0.224,-0.109702326,3.453329563,10.64104843,0.030735249,0.548539519,-1.1424402
0.226,-0.092406608,3.472550154,10.65853596,0.027890362,0.543006837,-1.151027203
0.228,-0.075053439,3.475988388,10.68360806,0.024836035,0.537596285,-1.159875989
0.23,-0.053429004,3.466449738,10.70794201,0.021694442,0.532552302,-1.167904496
0.232,-0.017468097,3.466842175,10.74256229,0.016947147,0.525134683,-1.176229715
0.234,0.022036232,3.473507881,10.77824593,0.011850785,0.51485467,-1.186247945
0.236,0.077687055,3.488687038,10.81588268,0.008517207,0.503736913,-1.196004272
0.238,0.12526463,3.499700546,10.84816647,0.006527531,0.494155079,-1.203439474
0.24,0.14753072,3.50363636,10.87337208,0.004153884,0.484573215,-1.209949493
0.242,0.177601889,3.494212866,10.88150311,0.00127409,0.470575661,-1.218588829
0.244,0.193892032,3.493887186,10.89912415,-0.002076942,0.455722928,-1.227786779
0.246,0.219902635,3.510263681,10.90654659,-0.005654867,0.443994314,-1.235012412
0.248,0.234018847,3.537988424,10.90744591,-0.006806784,0.432579845,-1.241417766
0.25,0.24823083,3.55637598,10.89718056,-0.006318092,0.418791741,-1.248119831
0.252,0.259837925,3.567322254,10.88191509,-0.005183628,0.402438015,-1.256218195
0.254,0.266848147,3.577378035,10.85111618,-0.003769911,0.386642784,-1.265206575
0.256,0.268026084,3.592336893,10.82255745,-0.002251475,0.373570263,-1.273270011
0.258,0.272824079,3.608923912,10.80116272,-0.000366519,0.362888843,-1.279413581
0.26,0.263649494,3.614890099,10.76892757,0.0029147,0.353498995,-1.284422755
0.262,0.250462234,3.634043932,10.73216248,0.007400196,0.342730314,-1.290566206
0.264,0.231050029,3.645315647,10.6947937,0.012077678,0.331385672,-1.296221137
0.266,0.206475958,3.644750834,10.65045357,0.016196655,0.322048158,-1.300113201
0.268,0.198690012,3.635844231,10.61437702,0.019757127,0.314455956,-1.303272247
0.27,0.179775819,3.622714281,10.56987381,0.024050636,0.3066369,-1.306134582
0.272,0.140836522,3.604279041,10.50619698,0.029269172,0.297770619,-1.308874726
0.274,0.11690408,3.5918293,10.48491764,0.033911746,0.289427936,-1.311562538
0.276,0.088968538,3.556864262,10.44376659,0.037070792,0.283807993,-1.313307881
0.278,0.070092648,3.542403221,10.40605259,0.039933134,0.280264974,-1.313691854
0.28,0.054559067,3.532979727,10.36284256,0.042987458,0.276617229,-1.313534737
0.282,0.03407428,3.511374474,10.32300282,0.044558257,0.272602975,-1.312836647
0.284,0.029755138,3.472167015,10.27489853,0.044558257,0.267820776,-1.311597466
0.286,0.018789696,3.429540873,10.2306633,0.045186576,0.263021112,-1.310480475
0.288,0.006330269,3.403673887,10.18444538,0.046076693,0.25918138,-1.309380889
0.29,0.001340753,3.369417429,10.13520241,0.045814894,0.255411476,-1.307670474
0.292,-0.003505111,3.34382844,10.09499836,0.043493606,0.251973182,-1.304773211
0.294,-0.007517793,3.297486067,10.06240845,0.04033456,0.249948606,-1.302015662
0.296,-0.010026917,3.254945993,10.02376556,0.036529742,0.248814136,-1.299938679
0.298,-0.008810663,3.224683285,9.990275383,0.032463122,0.248342902,-1.29751265
0.3,-0.020379445,3.208163261,9.963700294,0.02953097,0.249110848,-1.295907021
0.302,-0.032197222,3.195483685,9.942229271,0.02677335,0.250367492,-1.295557857
0.304,-0.045451526,3.180122375,9.92102623,0.021851523,0.25213027,-1.295732379
0.306,-0.07281246,3.17062211,9.895187378,0.016371189,0.254119933,-1.296430588
0.308,-0.108217917,3.177029133,9.867290497,0.011938052,0.256511033,-1.29829812
0.31,-0.147444516,3.198097944,9.846633911,0.007609636,0.258413434,-1.301265121
0.312,-0.178990528,3.225660086,9.830093384,0.003630285,0.259198844,-1.304371834
0.314,-0.213878825,3.257962704,9.79983139,-0.000174533,0.259844631,-1.30753088
0.316,-0.248834163,3.275746822,9.773532867,-0.003298672,0.259146482,-1.311021566
0.318,-0.282496631,3.293166876,9.742054939,-0.006161012,0.257296443,-1.314337611
0.32,-0.322489381,3.310730934,9.722039223,-0.00827286,0.255586028,-1.317583919
0.322,-0.341403604,3.303586483,9.694467545,-0.008813913,0.253631234,-1.321109533
0.324,-0.370459616,3.294162989,9.653315544,-0.007452556,0.251885921,-1.324443102
0.326,-0.390130371,3.280027628,9.610297203,-0.004694936,0.250227869,-1.327375293
0.328,-0.417845666,3.260835648,9.569576263,-0.001989675,0.247662216,-1.330464482
0.33,-0.42729798,3.233072519,9.53584671,0.001623156,0.243141815,-1.334251881
0.332,-0.438138902,3.195119619,9.505843163,0.006562438,0.237207696,-1.339260936
0.334,-0.42593804,3.161505222,9.474143982,0.01425934,0.230366007,-1.346032858
0.336,-0.422816008,3.11290288,9.443440437,0.023073252,0.224431887,-1.351949453
0.338,-0.412722081,3.07676959,9.416003227,0.03202679,0.21947515,-1.356557131
0.34,-0.39067626,3.047866583,9.395402908,0.042620942,0.212424025,-1.362229466
0.342,-0.360767871,3.015458822,9.370791435,0.054192472,0.203226134,-1.368320704
0.344,-0.356190175,3.000030518,9.328883171,0.068364546,0.193173036,-1.374917984
0.346,-0.35642001,2.98338604,9.290977478,0.081402153,0.184359133,-1.380119085
0.348,-0.346287757,2.962077618,9.252842903,0.092380278,0.176976383,-1.383487582
0.35,-0.341030091,2.954339504,9.205916405,0.104108892,0.169541284,-1.386454701
0.352,-0.365517974,2.936239481,9.138102531,0.116151661,0.161477864,-1.38797307
0.354,-0.374060482,2.927649021,9.11516571,0.131144047,0.151250228,-1.388583899
0.356,-0.385543078,2.907221794,9.053827286,0.147358149,0.140446648,-1.388845801
0.358,-0.398213208,2.901772499,8.990543365,0.159941971,0.130376101,-1.387990594
0.36,-0.399563551,2.89924407,8.944689751,0.169174761,0.120916411,-1.386698961
0.362,-0.395579577,2.897357702,8.90623951,0.177988678,0.111701071,-1.384918809
0.364,-0.405884206,2.884562969,8.853068352,0.188827172,0.10035643,-1.381654978
0.366,-0.408096463,2.864384413,8.801134109,0.198932633,0.089762285,-1.378129482
0.368,-0.419914246,2.839408159,8.757338524,0.207135677,0.081332341,-1.373539209
0.37,-0.439029545,2.807594299,8.719854355,0.215530708,0.07253588,-1.367238522
0.372,-0.458882272,2.774104118,8.688797951,0.223367244,0.062657319,-1.360588908
0.374,-0.483820289,2.731228828,8.659358025,0.229720235,0.052621678,-1.35407877
0.376,-0.51701349,2.676516294,8.629478455,0.23734732,0.040962879,-1.345753551
0.378,-0.538561285,2.636552572,8.594293594,0.245498017,0.028972466,-1.336992025
0.38,-0.555732548,2.587327719,8.567430496,0.250716537,0.020612339,-1.330586672
0.382,-0.572415352,2.55543685,8.548985481,0.254730791,0.013107423,-1.324512959
0.384,-0.589193881,2.529426336,8.513551712,0.2579422,0.004677482,-1.317932963
0.386,-0.620902717,2.495715857,8.487875938,0.26021114,-0.003473205,-1.311475277
0.388,-0.677750588,2.470299006,8.461913109,0.262061179,-0.010890855,-1.305366635
0.39,-0.721708119,2.449641943,8.428701401,0.26408577,-0.017383479,-1.30035758
0.392,-0.73516357,2.427911997,8.391399384,0.265866011,-0.022549653,-1.296430588
0.394,-0.774208188,2.39364624,8.342653275,0.267524064,-0.025918139,-1.292294145
0.396,-0.793409705,2.36142993,8.29254818,0.26977554,-0.028239427,-1.288087845
0.398,-0.80954665,2.352245569,8.234588623,0.271957189,-0.030438542,-1.284806728
0.4,-0.824486435,2.345791101,8.16567421,0.27443558,-0.031974431,-1.282834411
0.402,-0.81949693,2.317405224,8.095380783,0.277332813,-0.032271139,-1.281089067
0.404,-0.812094033,2.303394556,8.019081116,0.280404598,-0.033039082,-1.278802752
0.406,-0.826258183,2.290130615,7.93306303,0.28354618,-0.03460988,-1.277231932
0.408,-0.833996236,2.284279108,7.840493679,0.288607657,-0.035569809,-1.27532959
0.41,-0.84918505,2.264914751,7.754627705,0.295414418,-0.036582101,-1.272345066
0.412,-0.860667586,2.235925674,7.667239189,0.302291036,-0.039200094,-1.268924117
0.414,-0.881774902,2.204896927,7.591256618,0.308556765,-0.042481314,-1.265014648
0.416,-0.914278567,2.178033829,7.516902924,0.314892292,-0.046024334,-1.259935737
0.418,-0.94414866,2.138998985,7.430950642,0.321891069,-0.050946161,-1.253774762
0.42,-0.966194451,2.106715679,7.345439434,0.328837484,-0.057037361,-1.247474074
0.422,-0.988853216,2.080676317,7.244806767,0.335783899,-0.064577185,-1.240492821
0.424,-1.014634013,2.058065414,7.147314548,0.342067093,-0.072378807,-1.231975555
0.426,-1.025225997,2.038787127,7.051086903,0.348105907,-0.080930918,-1.222812533
0.428,-1.02443099,2.011723042,6.931491852,0.354354203,-0.090722211,-1.213091135
0.43,-1.060229182,1.994082808,6.813275337,0.360358119,-0.101019658,-1.20251441
0.432,-1.151160836,1.988844275,6.688183308,0.365018159,-0.111509085,-1.191571236
0.434,-1.177573681,1.980703831,6.645231247,0.369747996,-0.122103237,-1.179859996
0.436,-1.247043967,1.957709908,6.556052208,0.375786841,-0.133674771,-1.167834759
0.438,-1.314483762,1.951485157,6.482722759,0.38172096,-0.14564772,-1.155355573
0.44,-1.379606128,1.961674809,6.407525539,0.38728857,-0.157777757,-1.142073631
0.442,-1.444287896,1.963772058,6.342441559,0.39207077,-0.170291781,-1.128145933
0.444,-1.496778369,1.973779917,6.276782513,0.396556258,-0.181688771,-1.114270568
0.446,-1.539672852,1.972151875,6.218096256,0.4002738,-0.192021117,-1.100744247
0.448,-1.586532116,1.958667755,6.179032326,0.40208894,-0.203802094,-1.087340117
0.45,-1.65426898,1.932417631,6.14574337,0.402525276,-0.216490641,-1.074930787
0.452,-1.709412098,1.873146892,6.091069221,0.401443183,-0.228585765,-1.063882947
0.454,-1.754040003,1.812429786,6.05790472,0.399732769,-0.239511535,-1.054021835
0.456,-1.796618581,1.752546072,6.021829128,0.397463828,-0.249651894,-1.045277715
0.458,-1.801828384,1.687672734,5.972058773,0.395578861,-0.259443194,-1.036987424
0.46,-1.814488888,1.60875988,5.920956612,0.394514233,-0.269129783,-1.028871536
0.462,-1.831573844,1.521266222,5.901602268,0.392489642,-0.279689014,-1.021157265
0.464,-1.829830885,1.454563737,5.886460781,0.391355187,-0.289672285,-1.012954235
0.466,-1.812161684,1.384624243,5.878799438,0.392786354,-0.298782915,-1.0048908
0.468,-1.806377292,1.326435685,5.882840633,0.394636393,-0.308801115,-0.997508049
0.47,-1.8027668,1.262050748,5.892369747,0.395701051,-0.318889111,-0.990072906
0.472,-1.793161273,1.18940115,5.911245823,0.397708178,-0.327720463,-0.982951999
0.474,-1.78892839,1.102338433,5.928473949,0.400745034,-0.336045682,-0.975307465
0.476,-1.785126328,1.027553082,5.942504406,0.403555036,-0.344493091,-0.967470884
0.478,-1.780414581,0.95711565,5.956189632,0.406277746,-0.353603691,-0.960803747
0.48,-1.788382411,0.888076484,5.96152401,0.40959388,-0.363325179,-0.953996956
0.482,-1.783076882,0.817639053,5.96538353,0.412840188,-0.372959405,-0.945217967
0.484,-1.773145795,0.760293067,5.980122089,0.416365743,-0.383187026,-0.935653567
0.486,-1.765944004,0.705159426,5.995416164,0.420327634,-0.393990636,-0.926071703
0.488,-1.758426309,0.670979798,6.003355503,0.424149901,-0.405003637,-0.915547371
0.49,-1.747968435,0.629933596,6.006151676,0.428233981,-0.416121393,-0.904010713
0.492,-1.73629415,0.583313704,6.005309105,0.433365256,-0.426645726,-0.891409457
0.494,-1.719506145,0.550580204,5.995435715,0.439247012,-0.436925709,-0.87744683
0.496,-1.715445518,0.512167573,5.985676765,0.443837225,-0.447729319,-0.86198318
0.498,-1.714420795,0.482096463,5.979317665,0.447921306,-0.459388107,-0.844948769
0.5,-1.716709733,0.462147981,5.968601227,0.45305258,-0.471710146,-0.827286065
0.502,-1.722982407,0.43134898,5.951554775,0.458306015,-0.484625578,-0.809047401
0.504,-1.721507668,0.400578678,5.918830395,0.462651879,-0.499670297,-0.784892023
0.506,-1.713261962,0.377460271,5.87933588,0.465688735,-0.513353705,-0.76117301
0.508,-1.710906148,0.366753399,5.836153984,0.466910482,-0.525239408,-0.741747499
0.51,-1.70997715,0.359599531,5.794580936,0.467102468,-0.538608611,-0.719930887
0.512,-1.694903374,0.333943278,5.749139309,0.466858119,-0.552571237,-0.696543455
0.514,-1.678411961,0.308047563,5.706215858,0.466125071,-0.567092359,-0.67219609
0.516,-1.665368438,0.2810314,5.679553986,0.464571744,-0.579623818,-0.64807564
0.518,-1.657860279,0.264099598,5.672821522,0.462669343,-0.589153349,-0.624356628
0.52,-1.629522443,0.241498336,5.650565147,0.460644752,-0.598071992,-0.601143777
0.522,-1.618566513,0.216282606,5.619469166,0.458550364,-0.6051929,-0.579065323
0.524,-1.619658351,0.173503012,5.603083134,0.456124336,-0.609346807,-0.557772338
0.526,-1.632893443,0.116731696,5.585902214,0.452284634,-0.612296403,-0.537107647
0.528,-1.659957528,0.062718503,5.546656609,0.448200554,-0.614443183,-0.517018855
0.53,-1.658089995,-0.022706609,5.501568794,0.443383455,-0.616258323,-0.498099506
0.532,-1.647680044,-0.107221931,5.468988895,0.437013,-0.61826545,-0.481571257
0.534,-1.628191233,-0.18639338,5.41118288,0.429368436,-0.619399905,-0.46694538
0.536,-1.624303102,-0.286892384,5.378602982,0.420571983,-0.619539499,-0.453104913
0.538,-1.652305722,-0.387372255,5.377587795,0.411932617,-0.618335247,-0.440521091
0.54,-1.71927619,-0.503270805,5.386953831,0.40369466,-0.615019143,-0.429403365
0.542,-1.73865962,-0.616937876,5.400361538,0.394653857,-0.610812903,-0.420153111
0.544,-1.747135162,-0.718499959,5.405887127,0.385281444,-0.606257558,-0.411967516
0.546,-1.75603199,-0.803082287,5.418336868,0.375804305,-0.601580083,-0.404200792
0.548,-1.744329214,-0.878566623,5.433018208,0.367513984,-0.596501172,-0.397900164
0.55,-1.728642344,-0.945901156,5.419457436,0.361300618,-0.590026021,-0.391547173
0.552,-1.719161391,-1.017669797,5.416785717,0.355924994,-0.583917379,-0.384530932
0.554,-1.721153378,-1.088700891,5.420635223,0.351544231,-0.580479026,-0.377584517
0.556,-1.73020339,-1.175342321,5.40166378,0.348489881,-0.579396963,-0.370323956
0.558,-1.741628528,-1.279901981,5.385804653,0.346604943,-0.580845594,-0.363586992
0.56,-1.769075632,-1.390054345,5.377281189,0.345226139,-0.58585465,-0.355802834
0.562,-1.797231436,-1.507245779,5.365357876,0.344650179,-0.592958152,-0.346308231
0.564,-1.829007268,-1.625557661,5.369648457,0.343149185,-0.601213574,-0.33644712
0.566,-1.874564171,-1.76157701,5.360349655,0.340025038,-0.611196876,-0.325818062
0.568,-1.917046905,-1.892558932,5.35248661,0.338122636,-0.621878266,-0.313269138
0.57,-1.93315506,-2.012613773,5.36191988,0.337023079,-0.633188009,-0.298067331
0.572,-1.952394843,-2.122632027,5.364304543,0.334684342,-0.646627009,-0.281783402
0.574,-1.972525239,-2.222460985,5.364275932,0.331839442,-0.662195385,-0.264731526
0.576,-1.997310042,-2.323333263,5.374005795,0.328785121,-0.678304732,-0.246423036
0.578,-2.028473139,-2.436914206,5.368298531,0.325660974,-0.694972634,-0.226665914
0.58,-2.047071218,-2.553761005,5.364840984,0.323112816,-0.711221695,-0.2053729
0.582,-2.069624424,-2.652248859,5.363586426,0.320826411,-0.726999462,-0.182805792
0.584,-2.077286005,-2.748610497,5.352017403,0.317981541,-0.743510246,-0.159104213
0.586,-2.089008093,-2.842808008,5.349833965,0.314002186,-0.759706914,-0.134303078
0.588,-2.071923018,-2.942722797,5.340755463,0.309534133,-0.775763929,-0.108751468
0.59,-2.053200483,-3.031059265,5.337068558,0.304559946,-0.792728543,-0.082554072
0.592,-2.029219866,-3.107233047,5.343570709,0.299376339,-0.809099734,-0.056758106
0.594,-1.999091387,-3.168103456,5.356585979,0.29537952,-0.823010027,-0.032672562
0.596,-1.971098423,-3.218219042,5.371717453,0.290911466,-0.834372103,-0.009930924
0.598,-1.923032403,-3.254859924,5.384981155,0.286251456,-0.844041228,0.011309734
0.6,-1.867869973,-3.294316053,5.381897449,0.282446623,-0.851755559,0.032271139
0.602,-1.806865692,-3.312895298,5.382251263,0.279008329,-0.857427895,0.053110369
0.604,-1.751483083,-3.31957984,5.372722626,0.276355445,-0.86289078,0.072640605
0.606,-1.69545877,-3.332680941,5.352965832,0.274645001,-0.867638052,0.090687305
0.608,-1.62664938,-3.340562582,5.341866016,0.273632705,-0.871146202,0.10751228
0.61,-1.568968296,-3.344268799,5.350667477,0.273213834,-0.873223126,0.123813659
0.612,-1.538274527,-3.357101917,5.356863499,0.272725135,-0.87278682,0.139923051
0.614,-1.493225336,-3.381187439,5.372387886,0.272533149,-0.871983945,0.155962616
0.616,-1.473430037,-3.403989792,5.390975952,0.27340582,-0.871983945,0.170379043
0.618,-1.446883202,-3.440716743,5.413223267,0.274697363,-0.871338189,0.183189765
0.62,-1.428495646,-3.512897253,5.44630146,0.275552571,-0.870133877,0.195965573
0.622,-1.455224514,-3.61412406,5.505792618,0.275570035,-0.869331062,0.20844467
0.624,-1.484357119,-3.718971014,5.566222191,0.27715829,-0.868371129,0.220138371
0.626,-1.521716356,-3.839792013,5.607134342,0.280963093,-0.86734134,0.231849536
0.628,-1.556355596,-3.96317935,5.623338223,0.284401387,-0.866922498,0.243874863
0.63,-1.590745926,-4.094726562,5.626134872,0.286129266,-0.867707908,0.256353974
0.632,-1.614630461,-4.232689857,5.608446121,0.287769884,-0.869278669,0.270264238
0.634,-1.632654071,-4.359764576,5.590126038,0.290335506,-0.871512711,0.285396248
0.636,-1.661987782,-4.462370396,5.557124138,0.293581843,-0.874619365,0.30197686
0.638,-1.691532254,-4.557899475,5.520186424,0.295536608,-0.878092587,0.320075929
0.64,-1.745181561,-4.649367332,5.486485481,0.295396984,-0.88235122,0.339763254
0.642,-1.802469969,-4.718703747,5.443974018,0.294384688,-0.886609793,0.36135298
0.644,-1.84882164,-4.79254055,5.401903152,0.292080849,-0.890868425,0.384653121
0.646,-1.883767486,-4.856561661,5.362561703,0.288607657,-0.8970294,0.409279704
0.648,-1.914719701,-4.925294399,5.334444523,0.284366489,-0.90362674,0.434778959
0.65,-1.932321906,-4.98236227,5.308921814,0.278537095,-0.908216953,0.460941464
0.652,-1.950402975,-5.038674355,5.279798985,0.271416158,-0.912283599,0.488011509
0.654,-1.982341528,-5.094947338,5.265175343,0.264103234,-0.917414844,0.516058922
0.656,-2.015917778,-5.14469862,5.263461113,0.255760551,-0.92329663,0.544839442
0.658,-2.029373407,-5.169225216,5.266477585,0.246370673,-0.930103421,0.573602438
0.66,-2.022698164,-5.170048714,5.255674839,0.238132715,-0.937922478,0.603307962
0.662,-2.011522055,-5.139412403,5.246710777,0.230680168,-0.946474612,0.634025753
0.664,-1.993115425,-5.100971222,5.240869045,0.221953526,-0.95438093,0.664202511
0.666,-1.94650507,-5.058440208,5.221897602,0.213034883,-0.959808886,0.694152355
0.668,-1.880865693,-5.021033764,5.211851597,0.204046443,-0.966109574,0.723718226
0.67,-1.815465689,-4.975179672,5.215040684,0.195651412,-0.974679112,0.752777934
0.672,-1.767868996,-4.959962368,5.232662201,0.189071521,-0.98258543,0.781663179
0.674,-1.730787635,-4.949236393,5.249085903,0.183556274,-0.989270091,0.809518635
0.676,-1.686389565,-4.954484463,5.26845026,0.179734007,-0.995465994,0.835384369
0.678,-1.639673829,-4.982257366,5.308692455,0.177866504,-1.001784086,0.860098243
0.68,-1.605580449,-5.028302193,5.352937222,0.177098557,-1.008451223,0.884375811
0.682,-1.587805748,-5.059944153,5.380805492,0.17805849,-1.015589595,0.906244755
0.684,-1.57268405,-5.088684082,5.410982132,0.180973187,-1.023234129,0.925879717
0.686,-1.555072308,-5.125554562,5.437729836,0.185633212,-1.029814124,0.944607079
0.688,-1.544547319,-5.163775921,5.470865726,0.193522111,-1.03470099,0.961693883
0.69,-1.547506571,-5.185869694,5.504604816,0.20399408,-1.038575649,0.976232469
0.692,-1.553501725,-5.231139183,5.545497894,0.215199098,-1.040792227,0.987507284
0.694,-1.563480735,-5.303596973,5.60124445,0.22607249,-1.042328119,0.997158945
0.696,-1.577223539,-5.364400387,5.672496319,0.236806274,-1.043584704,1.006444097
0.698,-1.604670644,-5.440057278,5.736947536,0.248761773,-1.043148398,1.014961362
0.7,-1.625260711,-5.534015179,5.800441742,0.261205971,-1.040757298,1.022850156
0.702,-1.64535296,-5.637492657,5.860574722,0.273196399,-1.036952496,1.030477285
0.704,-1.677981138,-5.767037868,5.91549778,0.285343885,-1.031925917,1.037685513
0.706,-1.712725759,-5.896248341,5.963103771,0.297247022,-1.025764942,1.044404984
0.708,-1.756434202,-6.023629189,6.015058041,0.308399677,-1.019167542,1.050304174
0.71,-1.793419957,-6.151795864,6.0564394,0.319238186,-1.011749864,1.055540204
0.712,-1.8091259,-6.289951324,6.074664593,0.330286115,-1.001784086,1.062731028
0.714,-1.828806162,-6.426286221,6.094603062,0.338576406,-0.991399348,1.070375562
0.716,-1.859193325,-6.553696156,6.122356892,0.343533158,-0.980875015,1.076972842
0.718,-1.860706568,-6.672036648,6.165883064,0.347425252,-0.968064308,1.085647106
0.72,-1.846877575,-6.769768238,6.210817814,0.34997341,-0.954328597,1.096764922
0.722,-1.808943868,-6.844361782,6.265827179,0.349432379,-0.940837205,1.109488368
0.724,-1.758148551,-6.896526814,6.327875137,0.345732272,-0.92683965,1.12413168
0.726,-1.705054641,-6.933340073,6.385527134,0.340758085,-0.912283599,1.140520334
0.728,-1.633506298,-6.958134174,6.424179554,0.3333579,-0.898163855,1.157921195
0.73,-1.544413328,-6.969846725,6.475022793,0.322467029,-0.884532869,1.176037788
0.732,-1.451010704,-6.967251301,6.529112339,0.308556765,-0.870762229,1.197941661
0.734,-1.355185151,-6.939421177,6.598669052,0.292796433,-0.858213306,1.221381426
0.736,-1.240330577,-6.890368462,6.667105198,0.279130518,-0.849015415,1.239445567
0.738,-1.130810142,-6.824528217,6.727639675,0.266302347,-0.842103899,1.255310655
0.74,-1.029659867,-6.763226986,6.799465656,0.250978351,-0.836134911,1.273462057
0.742,-0.925282359,-6.696160793,6.8842206,0.234642059,-0.829293191,1.292835236
0.744,-0.827311575,-6.620714664,6.998385906,0.218201056,-0.822084963,1.312086225
0.746,-0.722704172,-6.529916763,7.092391491,0.201410994,-0.81567961,1.330656528
0.748,-0.602304518,-6.418998718,7.176006794,0.184481308,-0.808977544,1.348633409
0.75,-0.495178372,-6.302573204,7.236264229,0.168738425,-0.803078353,1.367308378
0.752,-0.361160547,-6.191807747,7.287863731,0.154130027,-0.799098969,1.386594296
0.754,-0.224719778,-6.082335472,7.340019226,0.14062117,-0.795590878,1.405792952
0.756,-0.168705031,-6.033311367,7.36967802,0.129433617,-0.79258889,1.424991488
0.758,-0.048535254,-5.956830978,7.41882658,0.121090941,-0.791053057,1.443212748
0.76,0.094494358,-5.909282207,7.479917049,0.11548844,-0.790738881,1.461050034
0.762,0.119202517,-5.903411388,7.502882481,0.112259574,-0.791873336,1.478084445
0.764,0.161838457,-5.925821781,7.542674065,0.110933125,-0.79485786,1.493548036
0.766,0.186584935,-5.988616467,7.589848995,0.113254413,-0.798924446,1.507737517
0.768,0.180360004,-6.083321571,7.627993584,0.119555056,-0.803409934,1.520443559
0.77,0.111090958,-6.266956806,7.675552368,0.128421322,-0.807755828,1.531299472
0.772,0.049234364,-6.395717144,7.716340065,0.139626339,-0.810478568,1.540148377
0.774,-0.000411803,-6.510332584,7.735934258,0.152384698,-0.810007274,1.547216892
0.776,-0.037167586,-6.57143259,7.734899521,0.167045459,-0.806970418,1.551667571
0.778,-0.117459536,-6.721922398,7.744888306,0.18374826,-0.802903831,1.554111004
0.78,-0.228062078,-6.935581207,7.765392303,0.201899692,-0.796830058,1.556065798
0.782,-0.264118731,-7.006545067,7.763199329,0.220976129,-0.788347781,1.556851149
0.784,-0.341394007,-7.145600319,7.769356728,0.241047427,-0.778277218,1.557165265
0.786,-0.421178371,-7.269782543,7.780552387,0.261851758,-0.764698565,1.559189916
0.788,-0.499775231,-7.398686409,7.786681175,0.283563644,-0.747821212,1.562226772
0.79,-0.606958866,-7.580530643,7.818907261,0.305345357,-0.732741594,1.564408422
0.792,-0.686302722,-7.690970898,7.846249104,0.325259566,-0.717766643,1.566886783
0.794,-0.749356389,-7.78544569,7.894573689,0.345051587,-0.698725104,1.571354866
0.796,-0.805869162,-7.884489059,7.972940445,0.363203019,-0.678985417,1.576328993
0.798,-0.827282906,-7.922221661,8.021925926,0.377218008,-0.662736416,1.581198454
0.8,-0.86992842,-7.990561962,8.184981346,0.389557481,-0.648861051,1.587918043
0.802,-0.875799,-7.996997356,8.251233101,0.401844591,-0.63533473,1.596330523
0.804,-0.871652246,-7.978964329,8.396866798,0.411251932,-0.622244775,1.607011914
0.806,-0.837865233,-7.930055618,8.543077469,0.417308211,-0.6099751,1.619264126
0.808,-0.78037566,-7.851056576,8.677907944,0.421654105,-0.598979533,1.631813049
0.81,-0.663643956,-7.69368124,8.878006935,0.424376816,-0.589764178,1.646072388
0.812,-0.618958592,-7.645614624,8.940437317,0.425162196,-0.582224369,1.661361456
0.814,-0.501202166,-7.544206142,9.061775208,0.423591405,-0.576325178,1.676406145
0.816,-0.377058059,-7.442845345,9.199346542,0.420118213,-0.572345793,1.691695333
0.818,-0.258324802,-7.344798088,9.32699585,0.415231288,-0.568820238,1.707385778
0.82,-0.09358456,-7.214065075,9.498669624,0.40880847,-0.566132426,1.724193335
0.822,0.008887277,-7.125154018,9.597990036,0.401478082,-0.564718723,1.74206543
0.824,0.055564631,-7.094689846,9.640406609,0.393117964,-0.562886119,1.760408878
0.826,0.150920898,-7.034547806,9.717298508,0.38308233,-0.561507344,1.77765274
0.828,0.250270695,-6.997763157,9.795196533,0.37364009,-0.560634673,1.79381454
0.83,0.349735409,-6.952924252,9.863881111,0.365995556,-0.558697343,1.810185671
0.832,0.485486627,-6.859512329,9.969839096,0.358787328,-0.556009531,1.82568419
0.834,0.524742007,-6.81780529,10.0011549,0.351753652,-0.552082539,1.839891195
0.836,0.605359554,-6.742292404,10.06166077,0.345732272,-0.547003627,1.852928758
0.838,0.688802242,-6.679861069,10.11500359,0.339815617,-0.540842652,1.864238501
0.84,0.754240573,-6.644302368,10.17175579,0.334562153,-0.533267915,1.873890162
0.842,0.808330357,-6.624670029,10.26838684,0.33178708,-0.524837971,1.882232904
0.844,0.830050588,-6.634582043,10.30814934,0.330338478,-0.515395701,1.888795257
0.846,0.833134294,-6.645729542,10.32676697,0.329762518,-0.505237937,1.893978953
0.848,0.831190169,-6.690557957,10.35823631,0.329832315,-0.495115012,1.89767909
0.85,0.820090711,-6.789860249,10.3791132,0.329867214,-0.484363765,1.899808288
0.852,0.803953767,-6.876606941,10.38127708,0.330827147,-0.472094119,1.901623487
0.854,0.79298836,-6.964081764,10.37215996,0.332799375,-0.457939476,1.903630614
0.856,0.777560115,-7.043713093,10.34699345,0.334858865,-0.443034381,1.905393362
0.858,0.768088639,-7.080267429,10.33468628,0.337284863,-0.428129256,1.906737328
0.86,0.754987538,-7.147573471,10.30292988,0.341421306,-0.411635906,1.906964183
0.862,0.776592851,-7.252343178,10.25938416,0.346570015,-0.394200057,1.905794859
0.864,0.803551555,-7.302094936,10.25023842,0.351509303,-0.375734478,1.904695272
0.866,0.814689398,-7.320750713,10.24845695,0.357007086,-0.356867462,1.90361321
0.868,0.842672765,-7.359977245,10.23673534,0.362068564,-0.338750958,1.901274443
0.87,0.885701418,-7.398782253,10.23820972,0.367287099,-0.320337743,1.898743629
0.872,0.914403081,-7.442691803,10.26437378,0.373517901,-0.301488161,1.897399783
0.874,0.954769373,-7.50039196,10.30225945,0.379521847,-0.282132477,1.895287991
0.876,0.997989416,-7.542827129,10.32066631,0.385124356,-0.262881488,1.892844439
0.878,1.041085124,-7.574229717,10.33730125,0.389313132,-0.244328648,1.891849637
0.88,1.090846181,-7.602921486,10.3506031,0.391320258,-0.226037592,1.891116619
0.882,1.163840532,-7.60192585,10.33604717,0.392454743,-0.207851261,1.890505791
0.884,1.240301847,-7.619719028,10.35029697,0.391651869,-0.190677226,1.889947176
0.886,1.268486381,-7.623195648,10.37237072,0.387550354,-0.175789565,1.889091969
0.888,1.307847023,-7.597290516,10.40278721,0.381441712,-0.162786856,1.889057159
0.89,1.34580946,-7.569125175,10.43661213,0.374233484,-0.151808739,1.89029634
0.892,1.378772855,-7.54143858,10.52470016,0.364983261,-0.141668379,1.891762376
0.894,1.423228383,-7.515647888,10.61487484,0.353638619,-0.130271375,1.892984152
0.896,1.473937631,-7.495000362,10.71279812,0.341456205,-0.120584801,1.8947469
0.898,1.54364717,-7.45889616,10.84101295,0.328593135,-0.115069561,1.897661567
0.9,1.620615959,-7.401090145,10.97795105,0.314839929,-0.111875601,1.901693344
0.902,1.762410164,-7.294759274,11.20484447,0.300720215,-0.111194924,1.906492949
0.904,1.807220101,-7.249010563,11.28531837,0.286775053,-0.112189762,1.911606789
0.906,1.905018449,-7.147793293,11.4349184,0.273824692,-0.113865279,1.917471051
0.908,1.983452559,-7.017702103,11.57033443,0.26066491,-0.11674507,1.923649549
0.91,2.065583229,-6.888127804,11.69777203,0.246475399,-0.121387646,1.929321885
0.912,2.134861708,-6.768848419,11.79862595,0.232181147,-0.128648222,1.93478477
0.914,2.2011621,-6.650872231,11.90491867,0.218462855,-0.136030957,1.94047451
0.916,2.272901773,-6.512295723,11.99716282,0.205617234,-0.143134445,1.946583152
0.918,2.351824284,-6.382855415,12.07568264,0.193138138,-0.151704013,1.952866316
0.92,2.417856455,-6.262886524,12.12892056,0.18079865,-0.160866991,1.957945228
0.922,2.508366585,-6.064148903,12.20967197,0.168825701,-0.170291781,1.961278796
0.924,2.573010206,-5.992743969,12.22493744,0.157952294,-0.179489657,1.963896871
0.926,2.672187805,-5.849896431,12.22053242,0.148160994,-0.188286126,1.965589762
0.928,2.740843773,-5.717143059,12.2380867,0.139137641,-0.197222203,1.966270447
0.93,2.805190325,-5.547183514,12.26938343,0.130410999,-0.205599785,1.965921402
0.932,2.811501503,-5.514852047,12.27123165,0.122120686,-0.21343632,1.964839339
0.934,2.807498217,-5.460637569,12.2645092,0.114319064,-0.220714331,1.962186456
0.936,2.789752483,-5.4375,12.2580452,0.1073552,-0.226840437,1.957002759
0.938,2.758599043,-5.435134888,12.23874664,0.101682879,-0.230907053,1.950161099
0.94,2.72646904,-5.443859577,12.21287155,0.097162478,-0.232879281,1.942952871
0.942,2.702402592,-5.440372944,12.18552971,0.092799157,-0.233682126,1.935290933
0.944,2.681400537,-5.437739849,12.15161705,0.088819802,-0.234013751,1.926476955
0.946,2.674447775,-5.436542511,12.119133,0.085311696,-0.234153375,1.916266799
0.948,2.669688225,-5.435575008,12.09437656,0.082292274,-0.233891577,1.905794859
0.95,2.679983139,-5.451788425,12.08149624,0.080128066,-0.232826918,1.895863891
0.952,2.698466301,-5.449796677,12.05807114,0.077981308,-0.229877308,1.8851825
0.954,2.716365576,-5.453809738,12.04597569,0.076148719,-0.225531444,1.87483263
0.956,2.771001339,-5.459488869,12.0051403,0.074159041,-0.22027801,1.864954114
0.958,2.829256773,-5.46310854,11.94310188,0.071436323,-0.213401407,1.853976011
0.96,2.87449789,-5.477292061,11.87660027,0.068451814,-0.204604954,1.843835592
0.962,2.908533573,-5.509508133,11.79722786,0.065955989,-0.194412231,1.835283518
0.964,2.947223902,-5.542720795,11.7229023,0.062744588,-0.184568569,1.825806379
0.966,2.986201763,-5.583431721,11.65297222,0.057334065,-0.175196156,1.815316916
0.968,2.999829292,-5.639264107,11.5961237,0.051644292,-0.165387392,1.805054426
0.97,3.004637003,-5.704731464,11.56799698,0.046809729,-0.154444188,1.795507431
0.972,2.99431324,-5.765419483,11.56865788,0.041381758,-0.1421047,1.786571383
0.974,2.982801676,-5.818953991,11.59896851,0.035377823,-0.128875107,1.777879596
0.976,2.988404274,-5.866799831,11.66955948,0.029461158,-0.115278997,1.769920945
0.978,3.010584116,-5.906533718,11.75831699,0.02263692,-0.101857416,1.762276411
0.98,3.045357466,-5.925993919,11.87805557,0.014800392,-0.088191487,1.75410831
0.982,3.090741873,-5.928732872,12.00719929,0.006248279,-0.073792517,1.745730639
0.984,3.164732456,-5.915593624,12.14365959,-0.002268928,-0.058765236,1.737579942
0.986,3.244104862,-5.862614632,12.29131413,-0.010786135,-0.043493606,1.729848146
0.988,3.310529709,-5.780819416,12.43244839,-0.020245818,-0.027506389,1.722605109
0.99,3.394058704,-5.687330723,12.5632,-0.030421089,-0.010576695,1.715868115
0.992,3.474523067,-5.575904369,12.69059086,-0.042132247,0.006091199,1.709968925
0.994,3.546703339,-5.44453001,12.80804062,-0.055431657,0.022654373,1.704401255
0.996,3.613894224,-5.297400951,12.92531872,-0.067456976,0.039810959,1.698344946
0.998,3.670722961,-5.147954941,13.03265572,-0.078051127,0.056897733,1.692410827
1,3.737425566,-4.915228844,13.15865707,-0.088348567,0.073007122,1.686214924
1.002,3.731631517,-4.843431473,13.19420624,-0.097284652,0.088732541,1.679896832
1.004,3.704759121,-4.69373703,13.29051113,-0.105016463,0.104580127,1.673229694
1.006,3.835329056,-4.511633873,13.29528904,-0.112277031,0.120514981,1.666405439
1.008,3.847960949,-4.322051048,13.27922916,-0.117739908,0.135524809,1.659842968
1.01,3.838077545,-4.121695042,13.30316067,-0.121562183,0.149208203,1.651814461
1.012,3.820954323,-3.930244923,13.29216671,-0.126257122,0.161408052,1.642861009
1.014,3.802557468,-3.751474619,13.23392105,-0.13039355,0.17362535,1.633837581
1.016,3.750976562,-3.577301264,13.1766901,-0.131754905,0.184603468,1.625756741
1.018,3.680529594,-3.433610916,13.10900116,-0.133255884,0.192544729,1.61804235
1.02,3.603924751,-3.301652193,13.0201292,-0.136065871,0.199875101,1.60860014
1.022,3.489893913,-3.126971245,12.89120483,-0.138160259,0.206332818,1.595597506
1.024,3.451327801,-3.074030399,12.84224892,-0.139015481,0.212424025,1.580832005
1.026,3.386387587,-2.987446547,12.73884773,-0.139050379,0.217764735,1.567253351
1.028,3.332422256,-2.913350821,12.6350069,-0.138753682,0.220871419,1.554145932
1.03,3.296930552,-2.839235783,12.53934383,-0.138631508,0.222145513,1.543447018
1.032,3.269962311,-2.775483131,12.44396877,-0.137950823,0.221709177,1.532468915
1.034,3.270201921,-2.743209124,12.36422253,-0.136397481,0.220592156,1.519152045
1.036,3.286693096,-2.753648043,12.30688667,-0.134512529,0.21823597,1.505835176
1.038,3.364322662,-2.784035206,12.26778412,-0.132487938,0.214745313,1.494752288
1.04,3.395293951,-2.797940731,12.26396275,-0.129765227,0.211132482,1.484856367
1.042,3.46198678,-2.830683947,12.25634003,-0.127077416,0.207118228,1.471050739
1.044,3.549748898,-2.843650818,12.25448227,-0.124407068,0.203592658,1.454697013
1.046,3.652661085,-2.872429132,12.26138687,-0.121736713,0.201219007,1.441415071
1.048,3.759873629,-2.901398897,12.27600098,-0.119712137,0.198670834,1.430018067
1.05,3.855162859,-2.930004835,12.2959013,-0.11730358,0.195738673,1.417155027
1.052,3.95067215,-2.970993757,12.31845474,-0.113481306,0.193295211,1.400888562
1.054,4.054053783,-2.979459524,12.37430668,-0.108768918,0.19228293,1.383522511
1.056,4.154035568,-2.97606945,12.45088291,-0.104335785,0.192823976,1.368250847
1.058,4.255559444,-2.967335224,12.53447914,-0.099361591,0.194307506,1.353520274
1.06,4.355828762,-2.944820404,12.61440754,-0.09482374,0.196803331,1.341512442
1.062,4.464515686,-2.920763254,12.6972847,-0.089814641,0.200660497,1.328422427
1.064,4.556567669,-2.898171663,12.78619671,-0.0842994,0.20696114,1.312679529
1.066,4.640499115,-2.851819754,12.88451195,-0.080477133,0.213645756,1.300601959
1.068,4.717659473,-2.787281752,12.97487831,-0.077667154,0.221080855,1.290304422
1.07,4.768799782,-2.709489346,13.06565666,-0.074926987,0.231064141,1.278855085
1.072,4.794111252,-2.594241858,13.15474033,-0.071610861,0.245218754,1.264735341
1.074,4.819058418,-2.46536684,13.24363136,-0.068050385,0.261729568,1.249516129
1.076,4.821644306,-2.294861555,13.31447124,-0.06503097,0.275378048,1.238258719
1.078,4.818091393,-2.096104383,13.37769794,-0.062535144,0.289462864,1.22832787
1.08,4.806177616,-1.877245784,13.41811275,-0.059620447,0.305921316,1.216703892
1.082,4.776030064,-1.653454781,13.43085861,-0.05560619,0.326516181,1.20218277
1.084,4.740538597,-1.417013049,13.44594193,-0.051120695,0.350043237,1.186492324
1.086,4.680501461,-1.172287345,13.45003128,-0.047717303,0.36910224,1.174414635
1.088,4.610696316,-0.929323733,13.43560886,-0.044121925,0.388841897,1.161935449
1.09,4.516929626,-0.687269986,13.41849518,-0.039182641,0.41140902,1.14643693
1.092,4.428200722,-0.43809104,13.39270496,-0.033702306,0.431637377,1.131601691
1.094,4.347630978,-0.191430792,13.35318089,-0.029269172,0.450923264,1.117045641
1.096,4.253404617,0.060898915,13.30611134,-0.026511552,0.467922777,1.103850961
1.098,4.13733387,0.317068905,13.24250221,-0.023177972,0.483997256,1.091860533
1.1,4.017058372,0.579559624,13.1554203,-0.018989183,0.501590192,1.078142285
1.102,3.903180838,0.820243895,13.06530285,-0.013177236,0.521050572,1.061509252
1.104,3.796935797,1.045241475,12.96489906,-0.007016223,0.540650666,1.044003606
1.106,3.688497543,1.25671649,12.86370087,-0.000733038,0.55716145,1.027091384
1.108,3.568701267,1.450484037,12.75063705,0.005916666,0.569867432,1.012325883
1.11,3.458385944,1.599384189,12.65496445,0.011466813,0.581369162,0.998101413
1.112,3.319445848,1.707247853,12.57272816,0.018465584,0.594249725,0.980944872
1.114,3.183828592,1.796235442,12.49213123,0.029513517,0.608334482,0.959756553
1.116,3.047991276,1.846820235,12.41983509,0.042219516,0.622890532,0.937241793
1.118,2.921606064,1.866988897,12.35491371,0.054349553,0.636085272,0.916402578
1.12,2.824162006,1.867515683,12.28853703,0.065275311,0.64556241,0.898460567
1.122,2.744521141,1.866615415,12.20352364,0.078243107,0.654463589,0.877883136
1.124,2.690680504,1.853236556,12.11856842,0.094579391,0.665040255,0.852785349
1.126,2.656472206,1.83346045,12.04002857,0.108158052,0.673121154,0.833097994
1.128,2.625998735,1.80668366,11.97572994,0.11969468,0.678950548,0.816569746
1.13,2.594357014,1.776507258,11.90960121,0.132592663,0.685094118,0.7981565
1.132,2.575768232,1.761203527,11.85127926,0.145734996,0.690766394,0.778347015
1.134,2.579436302,1.762534618,11.78846455,0.158964589,0.695915103,0.755779922
1.136,2.606921673,1.790431857,11.74658585,0.172892317,0.700836957,0.732375085
1.138,2.636504412,1.818147182,11.7098484,0.186121911,0.705060661,0.711169303
1.14,2.677694321,1.846073151,11.68930626,0.196873143,0.708987653,0.694030166
1.142,2.731966019,1.880482674,11.69369316,0.20661208,0.71247828,0.67788589
1.144,2.774391413,1.924516797,11.71622753,0.21879448,0.715794444,0.656174004
1.146,2.835970163,1.969527841,11.73772717,0.230383456,0.718412399,0.63533473
1.148,2.894906044,2.023263216,11.75115299,0.240768164,0.720419526,0.618021071
1.15,2.956618786,2.10272193,11.77266312,0.250995785,0.724084735,0.599293709
1.152,3.0245471,2.204054117,11.80724525,0.260839462,0.729355633,0.579990387
1.154,3.088529825,2.314742804,11.84348297,0.272428453,0.734975576,0.557615221
1.156,3.157990217,2.440725803,11.87518215,0.282202274,0.739792705,0.537142515
1.158,3.224357605,2.56742692,11.91365337,0.289951533,0.743946612,0.520596802
1.16,3.281531334,2.707851887,11.95804119,0.298800379,0.747541964,0.502497733
1.162,3.339528322,2.840854406,12.01044559,0.306811422,0.751538754,0.484084517
1.164,3.377720594,2.960736752,12.0460434,0.314176709,0.756949306,0.462704241
1.166,3.409687996,3.074423075,12.08572006,0.320651889,0.761033356,0.44294712
1.168,3.43052721,3.185293913,12.11945915,0.32518974,0.764279664,0.427029699
1.17,3.45480442,3.300876141,12.13698483,0.328924745,0.76686275,0.409174979
1.172,3.461077213,3.400944233,12.14854336,0.332328141,0.769498229,0.390552312
1.174,3.4716115,3.503665209,12.16896057,0.335940987,0.773093581,0.372226358
1.176,3.48221302,3.622350693,12.1906147,0.338663697,0.77675879,0.353411704
1.178,3.46410346,3.714776278,12.22655582,0.341351479,0.7814188,0.334073484
1.18,3.51323247,3.835348368,12.23615265,0.344650179,0.786462784,0.314839929
1.182,3.535575151,3.973350048,12.23392105,0.346639842,0.792309642,0.295013011
1.184,3.532357454,4.102119446,12.28211117,0.348071009,0.799744785,0.270857632
1.186,3.546885252,4.229912758,12.32094574,0.349589437,0.806551576,0.248063639
1.188,3.558434963,4.353740692,12.33678532,0.351491869,0.813113987,0.230278745
1.19,3.56146121,4.465933323,12.35429096,0.352259815,0.820828319,0.211045206
1.192,3.556720734,4.566556454,12.36606121,0.349729061,0.828403056,0.19058995
1.194,3.564238548,4.663225174,12.3613596,0.34679693,0.836204708,0.168057755
1.196,3.585106373,4.761205196,12.35883141,0.345610112,0.843168557,0.148143545
1.198,3.617073774,4.854732513,12.33720589,0.344493091,0.84821254,0.131842166
1.2,3.651406527,4.908285618,12.3056221,0.342154354,0.85311693,0.113847829
1.202,3.683077097,4.965287209,12.2762785,0.339606166,0.857008994,0.095783666
1.204,3.707459688,5.005461693,12.24922466,0.337319791,0.861738861,0.074857168
1.206,3.735491037,5.035169125,12.20578384,0.335120678,0.867149353,0.054977871
1.208,3.752049208,5.06563282,12.17730236,0.332328141,0.872490108,0.036459927
1.21,3.768856525,5.060087681,12.15543842,0.329622895,0.87814498,0.018832102
1.212,3.790270329,5.064129353,12.1400671,0.328209162,0.882665336,0.00408407
1.214,3.813819647,5.068428993,12.10620403,0.325730801,0.887971163,-0.013910274
1.216,3.832877398,5.057339191,12.07530975,0.322519392,0.893591106,-0.032271139
1.218,3.859041214,5.051487923,12.05172157,0.320250452,0.897779882,-0.046076693
1.22,3.870868683,5.041958809,12.03320026,0.31744048,0.901061118,-0.057683133
1.222,3.874306917,5.03328228,11.99767971,0.312832803,0.903661668,-0.069987699
1.224,3.867325306,5.028187275,11.95135689,0.306532174,0.906297088,-0.084770642
1.226,3.845988035,5.06071949,11.90159607,0.299236685,0.908950031,-0.100897484
1.228,3.816424608,5.10249424,11.85002422,0.293424755,0.910032094,-0.1134464
1.23,3.769843102,5.141586304,11.79174042,0.287892073,0.909840107,-0.123935826
1.232,3.731229305,5.178524494,11.72939587,0.282184839,0.909124553,-0.135454997
1.234,3.680577755,5.220135212,11.66286564,0.276687056,0.908531129,-0.148038819
1.236,3.626401663,5.275997162,11.60129547,0.271311432,0.908915103,-0.162315622
1.238,3.585106373,5.339558125,11.5364809,0.266581595,0.90907222,-0.176958934
1.24,3.54862833,5.381265163,11.49479198,0.261834294,0.909124553,-0.190188527
1.242,3.487116337,5.416536808,11.46373463,0.257994562,0.909473598,-0.203138873
1.244,3.419226646,5.449595928,11.43409443,0.255795449,0.908356607,-0.217572749
1.246,3.345753193,5.481495857,11.40652275,0.254591167,0.906314552,-0.232600033
1.248,3.283781767,5.521411896,11.38140202,0.252531678,0.905162633,-0.246929184
1.25,3.217567682,5.557842255,11.3597784,0.250734001,0.905337215,-0.262218267
1.252,3.164378166,5.605381966,11.34310532,0.25031513,0.904464543,-0.278868705
1.254,3.123523474,5.661903858,11.32034111,0.250158042,0.902213037,-0.295746028
1.256,3.094256639,5.714203358,11.30246067,0.250402391,0.900345564,-0.313338965
1.258,3.059569597,5.773186684,11.28763676,0.251135439,0.898006797,-0.331560195
1.26,3.035320997,5.829009533,11.28106594,0.251432121,0.895161927,-0.349694163
1.262,3.027085066,5.905633926,11.2795248,0.252496779,0.89179343,-0.372243822
1.264,3.040167093,5.968333244,11.29906178,0.255463839,0.888529658,-0.397184581
1.266,3.057491541,6.021733284,11.32687187,0.258238912,0.886889041,-0.416819543
1.268,3.090895176,6.062319756,11.34208012,0.26190412,0.885894239,-0.43395865
1.27,3.114013672,6.104697227,11.37586689,0.267174989,0.885492802,-0.452302069
1.272,3.163794041,6.141539097,11.42235374,0.270281673,0.88564986,-0.470505863
1.274,3.215508461,6.163460255,11.4651804,0.270909995,0.884759784,-0.488325656
1.276,3.280611753,6.201758385,11.50286484,0.270526022,0.880623341,-0.505674243
1.278,3.34875083,6.249670982,11.52879047,0.268798143,0.872926414,-0.522219956
1.28,3.415529728,6.277127266,11.5389595,0.2655693,0.864112496,-0.538416624
1.282,3.483917713,6.301203728,11.53009319,0.261101246,0.855176449,-0.554473639
1.284,3.55656743,6.334339142,11.53691101,0.256755382,0.847113013,-0.570792496
1.286,3.617839813,6.372886181,11.55487728,0.252147704,0.840358555,-0.586919308
1.288,3.702087164,6.404460907,11.56068039,0.247417867,0.833813608,-0.602941454
1.29,3.777609825,6.429255486,11.56698227,0.243613049,0.827687502,-0.618614495
1.292,3.850393534,6.443907738,11.56892586,0.241117239,0.821090162,-0.633833766
1.294,3.913552523,6.441187859,11.56771946,0.238202542,0.812398434,-0.651705921
1.296,3.976204157,6.433852196,11.55990505,0.234170824,0.803183079,-0.670660198
1.298,4.025122166,6.430682182,11.57540989,0.230959415,0.79564327,-0.685320973
1.3,4.069376945,6.434435844,11.57743073,0.228062168,0.788784087,-0.696979761
1.302,4.111390114,6.443582058,11.56317043,0.224047914,0.78063339,-0.709930122
1.304,4.120220184,6.445296288,11.55249214,0.219265714,0.771313369,-0.72340405
1.306,4.101248741,6.441187859,11.51734543,0.214780211,0.761836231,-0.735830784
1.308,4.087630272,6.440373898,11.46584225,0.210748509,0.752935052,-0.747838676
1.31,4.071205616,6.449203491,11.42982292,0.206263006,0.744574904,-0.760300338
1.312,4.055653095,6.462678432,11.39023209,0.201602981,0.736110091,-0.772622347
1.314,4.035331249,6.46524477,11.35002899,0.198129773,0.726999462,-0.784595311
1.316,4.00101757,6.474802017,11.32508183,0.195459425,0.716649652,-0.797039509
1.318,3.962212086,6.491226673,11.29935837,0.193103224,0.705811143,-0.809361517
1.32,3.925983191,6.509872437,11.28113365,0.191514984,0.696037293,-0.821648657
1.322,3.895950556,6.516222,11.2674675,0.190223441,0.6873281,-0.833900869
1.324,3.848679304,6.52880621,11.24527836,0.18908897,0.677781165,-0.845838904
1.326,3.79776907,6.546618938,11.21526432,0.188303575,0.667902589,-0.857951522
1.328,3.735107899,6.551550865,11.17922688,0.187029481,0.658826888,-0.870133877
1.33,3.683900595,6.532493114,11.15499687,0.184935093,0.650082767,-0.881740332
1.332,3.613884687,6.540499687,11.12652493,0.183765709,0.6414783,-0.892770827
1.334,3.547124863,6.537703037,11.10365582,0.184236959,0.633222878,-0.904516876
1.336,3.488198757,6.555707455,11.08209896,0.185371414,0.624827862,-0.917502105
1.338,3.428755283,6.571308136,11.04854202,0.186156824,0.616363049,-0.930051029
1.34,3.366103888,6.589226246,11.01357746,0.186156824,0.608805776,-0.94242543
1.342,3.299114227,6.61457634,10.97454166,0.186470971,0.601946592,-0.955969214
1.344,3.226914644,6.633652687,10.93735504,0.187867239,0.594738364,-0.96939075
1.346,3.165785789,6.66488266,10.9068718,0.190956473,0.587058961,-0.982725084
1.348,3.107290745,6.71827364,10.88254642,0.194743842,0.579519093,-0.997001886
1.35,3.0350914,6.760306358,10.86759758,0.197536364,0.572659969,-1.011959314
1.352,2.992723465,6.812002182,10.85601997,0.200573236,0.56639427,-1.027213573
1.354,2.959003448,6.855490208,10.86055851,0.203400672,0.560058713,-1.042258263
1.356,2.919164181,6.894573212,10.84540844,0.206437543,0.553374112,-1.057844043
1.358,2.888039351,6.930323124,10.8243866,0.210504159,0.546549857,-1.073970914
1.36,2.850402594,6.950530052,10.80064678,0.214064628,0.539987445,-1.089696288
1.362,2.826383829,6.972786427,10.76757717,0.217398211,0.533843875,-1.10524714
1.364,2.791897774,7.012176037,10.72700024,0.220347822,0.527874827,-1.120728254
1.366,2.772083282,7.059562683,10.6707077,0.222477123,0.522289753,-1.135563612
1.368,2.750181198,7.085391045,10.62132072,0.224309713,0.517175973,-1.150119662
1.37,2.730510473,7.113230705,10.55800819,0.22629939,0.512254119,-1.16519928
1.372,2.704863787,7.151547432,10.50174427,0.228062168,0.508030415,-1.178917527
1.374,2.682683945,7.196903229,10.44862175,0.229737684,0.504731774,-1.191431522
1.376,2.673547506,7.232710838,10.39444637,0.231360838,0.502759516,-1.204434276
1.378,2.656108141,7.270261765,10.3501339,0.232652381,0.500700057,-1.216651559
1.38,2.646550655,7.29794836,10.30550575,0.233175993,0.498291493,-1.227943897
1.382,2.634570122,7.329408169,10.28662968,0.232442945,0.496354193,-1.2394979
1.384,2.628450394,7.346981525,10.2600832,0.230575442,0.494312137,-1.251139283
1.386,2.627961874,7.379743576,10.21957302,0.22949335,0.494102716,-1.262187243
1.388,2.627061844,7.414823532,10.1760273,0.229685322,0.494957924,-1.272676587
1.39,2.630231619,7.439091206,10.13189793,0.230069295,0.494678676,-1.283584952
1.392,2.625347376,7.462573051,10.08575726,0.231500477,0.494259775,-1.294650316
1.394,2.618739605,7.493535042,10.03234673,0.233018905,0.493142784,-1.304825544
1.396,2.620702744,7.507948399,9.973086357,0.23553218,0.491414905,-1.314983368
1.398,2.602257729,7.519287109,9.912378311,0.240035132,0.490402609,-1.324792147
1.4,2.574427843,7.527303219,9.85706234,0.244712621,0.489355415,-1.333832979
1.402,2.558463097,7.525387764,9.810328484,0.249128297,0.487976611,-1.342559576
1.404,2.524369717,7.509068966,9.775746346,0.254085034,0.487103939,-1.35053575
1.406,2.48083353,7.497308731,9.746230125,0.259268671,0.485812396,-1.357569456
1.408,2.434998751,7.480683327,9.717720032,0.264836252,0.483386397,-1.364847422
1.41,2.393981457,7.471642494,9.704973221,0.271224171,0.480506599,-1.373172641
1.412,2.347045422,7.463042736,9.680887222,0.277594626,0.478377283,-1.381620049
1.414,2.293922901,7.457277298,9.671731949,0.283982515,0.476579607,-1.388845801
1.416,2.239402056,7.457344532,9.670372009,0.291312903,0.473001689,-1.395879388
1.418,2.199486017,7.465503693,9.659425735,0.299044699,0.468690723,-1.404117346
1.42,2.159062147,7.463052273,9.628501892,0.306916148,0.465060443,-1.411884069
1.422,2.124202967,7.459595203,9.604493141,0.314857394,0.460732013,-1.418847919
1.424,2.064596653,7.471058369,9.570773125,0.322187781,0.455496013,-1.426091075
1.426,2.002385855,7.467965126,9.530062675,0.329587966,0.450207681,-1.433142185
1.428,1.945173979,7.469737053,9.488278389,0.337668836,0.44521603,-1.439809322
1.43,1.880070806,7.460198402,9.447816849,0.346308231,0.439089924,-1.446301937
1.432,1.811529636,7.455879211,9.40852356,0.3548778,0.431846827,-1.453056455
1.434,1.753752708,7.458225727,9.367438316,0.363726616,0.42575562,-1.459898114
1.436,1.701779366,7.481889725,9.328634262,0.373029232,0.419804037,-1.46647799
1.438,1.652794123,7.504414558,9.297921181,0.38184312,0.413276523,-1.472935677
1.44,1.611987352,7.523912907,9.28099823,0.390814126,0.406504631,-1.479044318
1.442,1.581887364,7.547107697,9.262773514,0.39982003,0.399331331,-1.484681726
1.444,1.557830453,7.564154625,9.2332201,0.406958431,0.392629266,-1.490458846
1.446,1.535018444,7.582015514,9.219305038,0.413660497,0.385805041,-1.496270776
1.448,1.530938745,7.605344772,9.197986603,0.420170575,0.378910989,-1.501803398
1.45,1.540036798,7.6191926,9.170185089,0.425668359,0.372645259,-1.50688231
1.452,1.534137487,7.60997963,9.138964653,0.431061417,0.366938025,-1.510861754
1.454,1.520844817,7.605353832,9.120624542,0.43577382,0.362400174,-1.513724089
1.456,1.502016902,7.601686001,9.102276802,0.439596087,0.358019382,-1.515853405
1.458,1.482480049,7.583270073,9.095170021,0.443662703,0.353097558,-1.517651081
1.46,1.472989559,7.556904793,9.070701599,0.447851479,0.348245531,-1.518715739
1.462,1.467712641,7.531172276,9.051050186,0.450504392,0.344999224,-1.518192053
1.464,1.460539699,7.503255844,9.029540062,0.452214807,0.344004393,-1.516394377
1.466,1.467913866,7.4697752,9.011507034,0.453541249,0.343917131,-1.513776422
1.468,1.473343849,7.422839165,8.997045517,0.453768164,0.343236446,-1.510181069
1.47,1.480804205,7.387615681,8.978898048,0.453541249,0.34201473,-1.505887508
1.472,1.499967456,7.326764584,8.955041885,0.452511519,0.340897709,-1.501297355
1.474,1.518115401,7.27291441,8.950321198,0.450504392,0.340112299,-1.496584892
1.476,1.519781709,7.22343111,8.937966347,0.448113293,0.339484006,-1.491820216
1.478,1.520710707,7.157590389,8.933178902,0.445565105,0.337337226,-1.487038016
1.48,1.511315942,7.089653015,8.932431221,0.44294712,0.334248006,-1.481941581
1.482,1.49487257,7.031071186,8.944631577,0.439037561,0.330478102,-1.476391435
1.484,1.458672166,6.968544483,8.978630066,0.434604436,0.324823231,-1.470666766
1.486,1.403318286,6.922259808,8.968871117,0.431532651,0.317789555,-1.464854836
1.488,1.324242592,6.874796867,8.8986063,0.429979324,0.309254885,-1.459967971
1.49,1.240895629,6.818063736,8.848940849,0.428391069,0.2994636,-1.455464959
1.492,1.156064153,6.755824089,8.821781158,0.426488668,0.289166153,-1.450787425
1.494,1.069595218,6.699828625,8.775734901,0.42633158,0.277716786,-1.446668506
1.496,0.984926701,6.663800716,8.724518776,0.427850008,0.265167862,-1.443090558
1.498,0.920158744,6.641496658,8.685024261,0.430049121,0.251851022,-1.439756989
1.5,0.861883938,6.599655151,8.637083054,0.433469981,0.237591669,-1.436807394
1.502,0.807918608,6.557163239,8.594532967,0.438025266,0.222948358,-1.434032321
1.504,0.768347204,6.518520355,8.563532829,0.442720205,0.207205489,-1.431641221
1.506,0.728526831,6.467112541,8.535645485,0.44715336,0.191322997,-1.430035472
1.508,0.687538087,6.420454025,8.499052048,0.45148176,0.175702289,-1.428761482
1.51,0.64811039,6.363615513,8.477858543,0.454187036,0.160517931,-1.428552032
1.512,0.591185868,6.299796104,8.450813293,0.455286592,0.14643313,-1.429093003
1.514,0.537373781,6.230660915,8.411500931,0.453855425,0.13185963,-1.430576563
1.516,0.488062799,6.151125431,8.365255356,0.442214072,0.108891092,-1.434346437
1.518,0.421551883,6.083340645,8.333526611,0.409698576,0.093235485,-1.439652324
1.52,0.373217732,6.032411575,8.289904594,0.364895999,0.117460661,-1.442776442
1.522,0.331175566,5.982449055,8.258808136,0.327092141,0.178791523,-1.43930316
1.524,0.302560061,5.94999361,8.238237381,0.300022095,0.253299624,-1.428743958
1.526,0.290847629,5.921243668,8.22826767,0.285850018,0.313304067,-1.413385034
1.528,0.294821978,5.890492439,8.228660583,0.287665159,0.338035375,-1.396717191
1.53,0.292054296,5.848546505,8.234540939,0.297229558,0.326655835,-1.382370591
1.532,0.302176982,5.790261745,8.236035347,0.3061831,0.289811909,-1.37305057
1.534,0.301190585,5.730052948,8.235488892,0.317073971,0.244206473,-1.370205641
1.536,0.292207509,5.668569565,8.235977173,0.33257249,0.203540295,-1.373155236
1.538,0.304580748,5.606914043,8.234904289,0.351806015,0.17215927,-1.380660176
1.54,0.322690487,5.54997015,8.238083839,0.374477834,0.146118969,-1.390974998
1.542,0.332114071,5.478699684,8.233477592,0.402333289,0.110915676,-1.404326797
1.544,0.336634338,5.425682545,8.220578194,0.42723915,0.072902404,-1.417032838
1.546,0.336691797,5.381293774,8.209239006,0.445268393,0.038170349,-1.426300526
1.548,0.344343662,5.332136154,8.20083046,0.462390065,-0.000558505,-1.434800267
1.55,0.356841385,5.274359226,8.200418472,0.477574438,-0.036861353,-1.441746712
1.552,0.366016001,5.224895,8.201041222,0.48879692,-0.067404613,-1.446773171
1.554,0.376033336,5.201288223,8.209134102,0.49494046,-0.093095861,-1.450089335
1.556,0.396039277,5.162971497,8.222962379,0.495865494,-0.115244091,-1.450490832
1.558,0.431617081,5.114215851,8.226965904,0.492147952,-0.134355441,-1.448117137
1.56,0.488091528,5.03676796,8.25398159,0.484311402,-0.15222761,-1.443998098
1.562,0.505808651,5.007118702,8.262648582,0.473228574,-0.168040305,-1.438535213
1.564,0.553750098,4.956189156,8.27369976,0.460836738,-0.179838732,-1.431588888
1.566,0.568661213,4.914894104,8.296521187,0.447903842,-0.189996541,-1.423071623
1.568,0.576341808,4.901534081,8.304690361,0.43474406,-0.200451061,-1.414554477
1.57,0.611737669,4.850279331,8.315493584,0.421811163,-0.21197024,-1.407293916
1.572,0.626485944,4.834669113,8.315052986,0.409908027,-0.224850774,-1.400871038
1.574,0.643657148,4.819547176,8.301597595,0.400029451,-0.238307253,-1.394465685
1.576,0.651759148,4.791400909,8.284282684,0.391582072,-0.25167647,-1.389020324
1.578,0.662896991,4.755871296,8.264056206,0.384356409,-0.264068306,-1.384604573
1.58,0.670989394,4.675339699,8.225107193,0.378579378,-0.27637288,-1.379961967
1.582,0.667618334,4.654002666,8.209765434,0.373378277,-0.2898992,-1.37523222
1.584,0.664352655,4.602967739,8.188016891,0.368735701,-0.304559946,-1.370781541
1.586,0.688467026,4.542519093,8.175997734,0.365594119,-0.320302814,-1.365807414
1.588,0.706643879,4.482434273,8.152161598,0.362731785,-0.335557014,-1.359995484
1.59,0.699365497,4.392939091,8.132126808,0.358717531,-0.349659264,-1.353520274
1.592,0.705073237,4.331149578,8.107666969,0.353935331,-0.364232749,-1.347114921
1.594,0.720309913,4.273899078,8.08488369,0.349467278,-0.379015684,-1.340395451
1.596,0.721679449,4.243378162,8.079521179,0.346063882,-0.393536836,-1.332611203
1.598,0.727253139,4.185007095,8.064178467,0.3424685,-0.407988161,-1.324390769
1.6,0.733650446,4.113276958,8.017788887,0.337843388,-0.423015446,-1.315681577
1.602,0.748954177,4.063994408,8.009274483,0.33438763,-0.438915402,-1.306762934
1.604,0.759728074,4.008162022,7.999238968,0.332031429,-0.454867721,-1.29808867
1.606,0.766575515,3.975389957,7.995015144,0.329814881,-0.471134186,-1.289501548
1.608,0.765598714,3.906532764,7.999123573,0.328593135,-0.487540275,-1.281281114
1.61,0.742451549,3.773845911,7.996796608,0.328418613,-0.504644513,-1.27351439
1.612,0.72923553,3.723357201,7.993866444,0.329919577,-0.521696389,-1.266236424
1.614,0.703359008,3.626047134,7.980046749,0.333375335,-0.538434088,-1.260127664
1.616,0.68975997,3.535144091,7.961295605,0.338244796,-0.556917131,-1.255432725
1.618,0.676285327,3.438839912,7.935093403,0.342765212,-0.575173259,-1.250353813
1.62,0.661613703,3.314398766,7.871100903,0.347756863,-0.592068017,-1.245135307
1.622,0.6575436,3.277623892,7.845722198,0.353882968,-0.609050095,-1.241435289
1.624,0.655254722,3.229174852,7.794189453,0.359223664,-0.626067042,-1.238031864
1.626,0.654411912,3.136356354,7.724834442,0.364878535,-0.642769873,-1.234436512
1.628,0.650494993,3.068341732,7.673090935,0.370638132,-0.659367919,-1.231713772
1.63,0.640707493,2.997042418,7.623387337,0.376781672,-0.675582051,-1.229654312
1.632,0.615779102,2.935818195,7.594388485,0.384007335,-0.690399885,-1.227245688
1.634,0.60795486,2.90489459,7.579324245,0.390116006,-0.70336771,-1.224051714
1.636,0.596414805,2.833681345,7.540327549,0.395125091,-0.714328349,-1.220543623
1.638,0.57943511,2.776680231,7.491993427,0.399680406,-0.724468708,-1.217227578
1.64,0.548913837,2.712419987,7.439320564,0.402804524,-0.735219955,-1.213335395
1.642,0.525709212,2.659325838,7.381074905,0.404392779,-0.747175455,-1.208605647
1.644,0.495762557,2.620654821,7.323748112,0.404410243,-0.759933829,-1.2032125
1.646,0.467108756,2.585977316,7.270031929,0.403153598,-0.771452963,-1.196597695
1.648,0.449343771,2.551318884,7.229578972,0.400745034,-0.781802774,-1.188220143
1.65,0.439901024,2.511450529,7.169350624,0.396294445,-0.792658746,-1.179441094
1.652,0.428868562,2.472042084,7.104726791,0.389435321,-0.804334998,-1.170505047
1.654,0.406401366,2.418938398,7.055865765,0.380010545,-0.817931116,-1.160242558
1.656,0.384441733,2.356430769,7.015738964,0.368281931,-0.834180117,-1.149753094
1.658,0.37398389,2.291193485,6.966782093,0.355924994,-0.851860285,-1.139473081
1.66,0.366686344,2.233828545,6.928427219,0.342381239,-0.870099008,-1.128983617
1.662,0.368237793,2.194094181,6.885541916,0.326760531,-0.888564587,-1.118721128
1.664,0.351219833,2.160278559,6.839755535,0.310633689,-0.906192422,-1.108860016
1.666,0.343481749,2.119385719,6.791938305,0.293634206,-0.923767865,-1.09852767
1.668,0.332257718,2.069001913,6.746754646,0.27567476,-0.94230324,-1.087706685
1.67,0.30550012,2.011196375,6.691879749,0.256685585,-0.960559428,-1.07634449
1.672,0.286011308,1.957566381,6.639676571,0.236649185,-0.97747165,-1.063830495
1.674,0.274069071,1.900517344,6.597634792,0.216490641,-0.993825376,-1.049902797
1.676,0.250280261,1.827618599,6.558197498,0.196297184,-1.010266423,-1.035399079
1.678,0.199599803,1.731189847,6.459335804,0.176714584,-1.027056456,-1.020336986
1.68,0.161618188,1.652956963,6.389971256,0.158650428,-1.045574427,-1.004419565
1.682,0.127065077,1.584846616,6.32144928,0.143082097,-1.065104604,-0.989409685
1.684,0.100518167,1.524809599,6.239318371,0.128857657,-1.085682034,-0.974155545
1.686,0.078079708,1.494431973,6.196988583,0.117373392,-1.10351932,-0.960681558
1.688,0.033825282,1.424281836,6.118947029,0.110496797,-1.117097974,-0.949843109
1.69,-0.01100375,1.353231549,6.051546097,0.106116019,-1.12924552,-0.939109325
1.692,-0.060343459,1.273849368,5.97598505,0.104335785,-1.139891982,-0.92968452
1.694,-0.105421484,1.193145633,5.907817364,0.104876831,-1.151149392,-0.921760738
1.696,-0.156140253,1.105575323,5.839802742,0.107931159,-1.164256811,-0.91409874
1.698,-0.195711628,1.002931118,5.772784233,0.113917641,-1.178114653,-0.906890512
1.7,-0.249935508,0.911961019,5.712248802,0.121405102,-1.190070152,-0.900485158
1.702,-0.307195216,0.822427452,5.652154922,0.129503429,-1.198412895,-0.894079804
1.704,-0.368180335,0.735719085,5.585672379,0.139102742,-1.205917835,-0.887063563
1.706,-0.427384168,0.650667429,5.524448395,0.149330378,-1.213701963,-0.879785538
1.708,-0.493866354,0.568785727,5.472082138,0.159802347,-1.221608281,-0.873031139
1.71,-0.553520262,0.499009103,5.412015915,0.171967298,-1.229863763,-0.866503596
1.712,-0.617435932,0.437209964,5.348349571,0.183852986,-1.237647891,-0.860360026
1.714,-0.678622127,0.38643375,5.285047054,0.195633948,-1.245554209,-0.854391038
1.716,-0.736533105,0.349055439,5.237584591,0.208008334,-1.253198743,-0.848805964
1.718,-0.7867921,0.32102415,5.172260761,0.219667137,-1.259778619,-0.843378007
1.72,-0.839100659,0.299093276,5.085380554,0.23073253,-1.265293837,-0.837688208
1.722,-0.893113852,0.272536784,4.96901226,0.241239414,-1.271018624,-0.831911206
1.724,-0.891830564,0.270793796,4.888758659,0.251816094,-1.277127266,-0.825767636
1.726,-0.883182704,0.268485785,4.843613625,0.262759328,-1.28341043,-0.819170296
1.728,-0.845430911,0.285743207,4.732848167,0.273213834,-1.289745927,-0.811106861
1.73,-0.744711697,0.341537654,4.589215279,0.281888127,-1.29454565,-0.801524997
1.732,-0.375841796,0.54874146,4.28216362,0.288886905,-1.298071146,-0.7909832
1.734,0.323169351,1.052701831,3.545276403,0.295204997,-1.301404715,-0.779446602
1.736,0.611910105,1.243615389,3.210021257,0.300301343,-1.305279374,-0.766531169
1.738,0.600705206,1.062584996,3.202848196,0.302692443,-1.310009241,-0.753074646
1.74,0.354983479,0.770607352,3.292946815,0.302099049,-1.315419793,-0.739705443
1.742,-0.175322607,0.537153482,3.891487598,0.300894767,-1.320446253,-0.725428641
1.744,-0.371388584,0.484663039,4.208001137,0.299149424,-1.325350642,-0.711396217
1.746,-0.721305907,0.414934307,4.724755764,0.29558897,-1.331127763,-0.698760033
1.748,-0.916730225,0.371637583,4.997541428,0.291627049,-1.335682988,-0.686350703
1.75,-0.983729601,0.342571974,5.238350391,0.287490636,-1.339435458,-0.674028695
1.752,-0.970867932,0.283032954,5.448819637,0.281381995,-1.343798757,-0.662073195
1.754,-0.93552953,0.135578856,5.57348156,0.274156332,-1.348423958,-0.650274754
1.756,-0.896456182,-0.074095756,5.649578571,0.267436802,-1.353450418,-0.638197064
1.758,-0.854902387,-0.321321011,5.723999977,0.260280937,-1.35804069,-0.62634629
1.76,-0.764554799,-0.658348024,5.695642948,0.25167647,-1.361164808,-0.615839422
1.762,-0.72553885,-0.749097824,5.64278841,0.242181882,-1.364009738,-0.606187761
1.764,-0.654124618,-0.904050529,5.488276482,0.232634932,-1.367692351,-0.596274257
1.766,-0.605292499,-0.997769177,5.258509636,0.223070532,-1.37172401,-0.585924506
1.768,-0.569887042,-1.035444379,4.990071774,0.213802829,-1.375249624,-0.576028466
1.77,-0.569599748,-1.047769666,4.710946083,0.204360604,-1.378583193,-0.566307008
1.772,-0.606815159,-1.043757081,4.47127676,0.194831103,-1.382771969,-0.556358576
1.774,-0.655714333,-1.027447701,4.260845661,0.186540783,-1.38764143,-0.546637118
1.776,-0.718634009,-1.016970754,4.098863602,0.179367483,-1.392144442,-0.536985457
1.778,-0.768529177,-1.018838167,3.97709465,0.173607901,-1.396193624,-0.527700305
1.78,-0.791705012,-1.023827672,3.896180153,0.170012519,-1.401307344,-0.518868923
1.782,-0.817801833,-1.041410685,3.849809408,0.167272359,-1.407189131,-0.510543704
1.784,-0.837970555,-1.057777524,3.83545351,0.164584547,-1.412407637,-0.50335294
1.786,-0.855093956,-1.072947145,3.850767136,0.163484991,-1.418010235,-0.496650904
1.788,-0.854088366,-1.098316073,3.850029469,0.165247768,-1.425654769,-0.488866717
1.79,-0.839684844,-1.125839829,3.848592997,0.168808252,-1.432566285,-0.480646223
1.792,-0.821460187,-1.153239012,3.847865343,0.174044237,-1.437889457,-0.472565353
1.794,-0.809489191,-1.190224767,3.858112335,0.181863308,-1.44417274,-0.46422267
1.796,-0.80361861,-1.22398293,3.876461744,0.190729573,-1.449879885,-0.456106901
1.798,-0.787998855,-1.257674217,3.887580395,0.199700579,-1.453789473,-0.44806093
1.8,-0.7786327,-1.283905029,3.879976273,0.209038079,-1.456320167,-0.439421535
1.802,-0.787366748,-1.297504187,3.881048918,0.219457701,-1.458292365,-0.430851966
1.804,-0.785355568,-1.312185287,3.877706528,0.231273577,-1.460369349,-0.422945648
1.806,-0.788918197,-1.307061791,3.866137743,0.242408782,-1.462463737,-0.415301085
1.808,-0.802210808,-1.290991783,3.849110126,0.252304792,-1.464907169,-0.407464564
1.81,-0.825252652,-1.259819388,3.835108995,0.262322992,-1.466844559,-0.39891246
1.812,-0.856530428,-1.236356258,3.824631929,0.270822734,-1.467944026,-0.389732033
1.814,-0.880980015,-1.223935008,3.800986767,0.277437538,-1.469026208,-0.380324692
1.816,-0.890221655,-1.213850737,3.79203248,0.28297022,-1.46977663,-0.371755123
1.818,-0.900181532,-1.217231274,3.789073229,0.287124127,-1.470090866,-0.361963838
1.82,-0.898888648,-1.224892735,3.8099792,0.290702045,-1.470841289,-0.348507345
1.822,-0.874381602,-1.242418289,3.840079308,0.294053078,-1.471783757,-0.330722451
1.824,-0.851799488,-1.267184019,3.868570328,0.296985239,-1.472796082,-0.31084314
1.826,-0.812228143,-1.281922579,3.900135517,0.299446136,-1.474785805,-0.292342663
1.828,-0.771229863,-1.326330304,3.943594933,0.300772578,-1.476548553,-0.277559698
1.83,-0.702353478,-1.383599639,4.001084328,0.300667882,-1.478206635,-0.264277756
1.832,-0.622320056,-1.434892893,4.048652649,0.300004631,-1.482046366,-0.245288566
1.834,-0.54854995,-1.503539562,4.104715347,0.298154593,-1.487387061,-0.223995552
1.836,-0.476494014,-1.573996067,4.150454044,0.295187533,-1.493041873,-0.205233261
1.838,-0.397992939,-1.643763065,4.197504997,0.29241246,-1.498173118,-0.19001399
1.84,-0.299821079,-1.752727985,4.254094124,0.290003896,-1.503426671,-0.176557511
1.842,-0.268255919,-1.787625909,4.273439407,0.287141562,-1.510617375,-0.158458442
1.844,-0.188653514,-1.859767914,4.311832428,0.284401387,-1.518279314,-0.138771132
1.846,-0.110391855,-1.927341938,4.346730232,0.282656074,-1.525819182,-0.120986223
1.848,-0.039312795,-1.993364453,4.372205257,0.281312168,-1.532660842,-0.105854221
1.85,0.002949656,-2.055326462,4.393676281,0.280753672,-1.539240718,-0.09243264
1.852,0.040318355,-2.135647058,4.406346321,0.281172544,-1.548229218,-0.075293504
1.854,0.047012541,-2.231874704,4.437978745,0.281015456,-1.558212519,-0.056321774
1.856,0.053697154,-2.321944475,4.473479271,0.280648947,-1.567008972,-0.03848451
1.858,0.054922991,-2.396365881,4.481179237,0.281120181,-1.574374199,-0.021764256
1.86,0.043746851,-2.458615303,4.474265099,0.281626314,-1.579889536,-0.008656833
1.862,0.012124237,-2.520577192,4.459372997,0.283092409,-1.585928321,0.004572763
1.864,-0.034227509,-2.584645987,4.437461376,0.286216557,-1.593747377,0.019739674
1.866,-0.075484388,-2.64722085,4.412657261,0.290335506,-1.601985335,0.033807028
1.868,-0.132878184,-2.707985878,4.390285969,0.294855923,-1.609437943,0.046163958
1.87,-0.19624792,-2.76477623,4.366477966,0.299847573,-1.61689043,0.057176985
1.872,-0.240942881,-2.821652889,4.328391075,0.305973679,-1.625617146,0.070825458
1.874,-0.267154604,-2.867190599,4.301365376,0.311314374,-1.634204149,0.085538588
1.876,-0.299074084,-2.903505802,4.271141052,0.314438522,-1.640871286,0.097197384
1.878,-0.319396079,-2.937790871,4.235735416,0.317283392,-1.646421432,0.108576931
1.88,-0.335887373,-2.962412834,4.211362362,0.320023567,-1.651203632,0.120776787
1.882,-0.33263123,-2.978904009,4.182948112,0.322083056,-1.655043364,0.134913951
1.884,-0.340694904,-2.998680115,4.155519962,0.324194908,-1.65787077,0.150447384
1.886,-0.347254992,-3.013457298,4.161284924,0.327249229,-1.658394337,0.163711891
1.888,-0.362271458,-3.01715374,4.161419392,0.330704987,-1.657661319,0.174148947
1.89,-0.388684303,-3.018609524,4.196834564,0.333689511,-1.655776381,0.183783174
1.892,-0.405405402,-3.013744354,4.274214745,0.33838442,-1.652477741,0.195895761
1.894,-0.403528333,-3.010239363,4.376255989,0.34407422,-1.648620605,0.20935224
1.896,-0.389929265,-2.972784519,4.509067059,0.349240392,-1.643890738,0.22209315
1.898,-0.355127126,-2.937340736,4.644492626,0.353551358,-1.638811827,0.232966542
1.9,-0.292044699,-2.930330515,4.763761997,0.358141571,-1.632319212,0.243700326
1.902,-0.169145569,-2.926719904,4.93173933,0.362539798,-1.622737288,0.255952537
1.904,-0.121922322,-2.934467793,4.993700981,0.366536588,-1.61062479,0.271677941
1.906,9.58E-06,-2.9589746,5.192697525,0.369747996,-1.598756552,0.289759547
1.908,0.043928813,-2.961292267,5.256910324,0.371353716,-1.590134621,0.304053813
1.91,0.119949512,-2.969423056,5.37420702,0.372331083,-1.582839131,0.317143768
1.912,0.234085888,-3.038184643,5.482635975,0.36988762,-1.572611451,0.33541736
1.914,0.33603102,-3.113716841,5.615341187,0.364791274,-1.561179519,0.35578537
1.916,0.422155201,-3.175247908,5.691889286,0.358926952,-1.551807165,0.374181151
1.918,0.503902853,-3.239594221,5.79353714,0.352765948,-1.544825792,0.389243335
1.92,0.579665005,-3.311238527,5.916512489,0.346465319,-1.539136052,0.40390408
1.922,0.672847271,-3.379281759,6.015163422,0.338524073,-1.533044815,0.421217769
1.924,0.768701553,-3.446903467,6.11026144,0.326777995,-1.527093291,0.442475885
1.926,0.871393681,-3.493073225,6.214189053,0.31504938,-1.522136569,0.462808967
1.928,0.95812124,-3.540947676,6.293839455,0.306479812,-1.51665616,0.479616463
1.93,1.059491754,-3.59060359,6.332864761,0.297945142,-1.510949016,0.498134434
1.932,1.16058445,-3.636083841,6.368299007,0.288799644,-1.506096959,0.516390562
1.934,1.224624634,-3.694320202,6.389741421,0.278118223,-1.500337362,0.536147714
1.936,1.292198539,-3.744186878,6.40440321,0.267471701,-1.494525433,0.55649823
1.938,1.356161952,-3.807748079,6.427722454,0.259966791,-1.489952683,0.571717501
1.94,1.392649651,-3.854003906,6.450353146,0.253456712,-1.48524034,0.585488141
1.942,1.404917598,-3.885865927,6.466882229,0.244799882,-1.479218841,0.602138579
1.944,1.390973806,-3.930129766,6.496465206,0.23528783,-1.471399784,0.622506559
1.946,1.361007929,-3.964730978,6.525109291,0.226980075,-1.462865114,0.644672275
1.948,1.316150188,-3.982898235,6.535883427,0.220766693,-1.455901265,0.662212849
1.95,1.280122161,-3.996219397,6.546034813,0.216979325,-1.449932218,0.678200066
1.952,1.257128239,-4.007845879,6.559949875,0.213855192,-1.444329739,0.696386397
1.954,1.239487767,-4.032458305,6.56923008,0.210381985,-1.436685205,0.716405273
1.956,1.226827264,-4.055404186,6.576019764,0.208008334,-1.428202868,0.734347284
1.958,1.227737069,-4.067538261,6.578078747,0.208619207,-1.420034766,0.74921751
1.96,1.238913178,-4.065239429,6.575847149,0.211725891,-1.410383105,0.766007543
1.962,1.252244115,-4.055681705,6.562133312,0.215495795,-1.400138021,0.783897162
1.964,1.254552126,-4.060269356,6.552805901,0.221150667,-1.389037728,0.804108083
1.966,1.261409044,-4.080725193,6.543420315,0.226910248,-1.380084157,0.822765648
1.968,1.269894123,-4.113860607,6.556463718,0.231797174,-1.372980714,0.838875055
1.97,1.264253378,-4.138646126,6.573089123,0.238185078,-1.365353584,0.856153786
1.972,1.27528584,-4.160547733,6.593449593,0.245218754,-1.357499599,0.872978807
1.974,1.275467873,-4.191950321,6.607862949,0.252810955,-1.348005056,0.889925957
1.976,1.276320219,-4.222212791,6.612938404,0.261589944,-1.338458061,0.907571197
1.978,1.282736659,-4.263029099,6.624085903,0.269566089,-1.330464482,0.926420748
1.98,1.331137776,-4.305282116,6.635118008,0.276931405,-1.321528435,0.94514817
1.982,1.3022542,-4.390066147,6.687905788,0.2846632,-1.31095171,0.962863267
1.984,1.320861936,-4.448513031,6.759741306,0.292220473,-1.297477722,0.983335972
1.986,1.3535285,-4.507448673,6.79076004,0.298451304,-1.28410852,1.002080798
1.988,1.395015121,-4.569056034,6.855739117,0.302570283,-1.272362471,1.016968489
1.99,1.423688054,-4.6262393,6.951124191,0.305519879,-1.259045601,1.0321877
1.992,1.46621871,-4.687569141,7.056660652,0.307335019,-1.246060371,1.047214985
1.994,1.527883768,-4.745480061,7.152112484,0.306828886,-1.230352402,1.065959811
1.996,1.583687901,-4.80550766,7.255187511,0.303774566,-1.212916613,1.086537242
1.998,1.63118875,-4.854004383,7.37556839,0.300004631,-1.199826598,1.102175474
2,1.66288805,-4.909894466,7.504376411,0.295623869,-1.188813567,1.116103172
2.002,1.740661263,-4.976798534,7.63257122,0.288485467,-1.177381635,1.132823348
2.004,1.83025229,-5.036318302,7.749159336,0.27831021,-1.164204478,1.151306391
2.006,1.921241522,-5.091777325,7.825706959,0.265656561,-1.149369121,1.169894218
2.008,2.034994841,-5.153729916,7.908402443,0.250402391,-1.13481307,1.188813567
2.01,2.132477045,-5.219819546,7.991050243,0.232826918,-1.121635795,1.20787251
2.012,2.227814198,-5.272625923,8.056958199,0.214308977,-1.109627962,1.226373076
2.014,2.324836969,-5.325336456,8.124406815,0.194464579,-1.099068761,1.245257497
2.016,2.426887512,-5.355168343,8.187633514,0.173433363,-1.091302037,1.263670683
2.018,2.52506876,-5.373603344,8.23916626,0.151634201,-1.085612297,1.280652761
2.02,2.625136614,-5.390066624,8.278201103,0.129171819,-1.080446124,1.297024012
2.022,2.717869043,-5.400265694,8.305638313,0.108035877,-1.076152563,1.312836647
2.024,2.794215441,-5.401156425,8.325558662,0.088069312,-1.071859002,1.328125715
2.026,2.848228455,-5.408176422,8.330337524,0.069533914,-1.06665802,1.343170524
2.028,2.895863533,-5.426419735,8.320023537,0.052831117,-1.061369658,1.35783124
2.03,2.925427198,-5.444740295,8.301703453,0.037821285,-1.055749655,1.371374965
2.032,2.939868927,-5.474150658,8.293438911,0.024452062,-1.049361706,1.384447575
2.034,2.918235064,-5.505208015,8.278833389,0.013648475,-1.042973876,1.397677064
2.036,2.877868652,-5.528996944,8.255752563,0.005462881,-1.035957575,1.409685016
2.038,2.842195034,-5.549500942,8.241110802,0.000244346,-1.028365493,1.4199301
2.04,2.805621386,-5.552029133,8.237710953,-0.002181662,-1.020843029,1.428848743
2.042,2.751972198,-5.545909882,8.242775917,-0.003490658,-1.013058901,1.436894655
2.044,2.715493917,-5.541686535,8.236514091,-0.003089233,-1.004524231,1.443945765
2.046,2.666336298,-5.522915363,8.236465454,-0.000698132,-0.9944188,1.449670434
2.048,2.633832455,-5.508790016,8.234138489,0.00434587,-0.983685017,1.455779076
2.05,2.601051331,-5.493323326,8.233658791,0.012723451,-0.973300278,1.462376475
2.052,2.582941294,-5.49445343,8.226669312,0.023719024,-0.962775946,1.468851686
2.054,2.561058283,-5.512630463,8.230958939,0.037018433,-0.950593591,1.476216912
2.056,2.531552315,-5.542461872,8.240440369,0.048747044,-0.939318776,1.483006239
2.058,2.481091976,-5.584168911,8.261835098,0.058259089,-0.928742051,1.489551187
2.06,2.454133272,-5.643353462,8.301654816,0.068137653,-0.917170525,1.496637225
2.062,2.442430496,-5.703294754,8.362390518,0.078138389,-0.90647167,1.503932714
2.064,2.425010204,-5.751447201,8.421192169,0.087580621,-0.895476103,1.511018753
2.066,2.416611433,-5.805517673,8.497692108,0.096167639,-0.884061635,1.517686009
2.068,2.423774958,-5.849628448,8.572995186,0.104702301,-0.873415113,1.524806857
2.07,2.417166948,-5.907348156,8.648756981,0.113551118,-0.863082767,1.531508923
2.072,2.431934357,-5.94570303,8.717891693,0.120933861,-0.853832543,1.538019061
2.074,2.497181177,-5.996316433,8.776799202,0.125524074,-0.845332742,1.544773459
2.076,2.558769464,-6.033158302,8.849486351,0.12959069,-0.83650142,1.551632643
2.078,2.634062529,-6.054734707,8.951202393,0.133151174,-0.827862024,1.559154987
2.08,2.742720842,-6.069071293,9.060779572,0.135228112,-0.818664134,1.566310883
2.082,2.848525286,-6.075928211,9.179839134,0.135437548,-0.807336927,1.572384596
2.084,2.952567816,-6.069703579,9.293275833,0.133639857,-0.794526219,1.578964472
2.086,3.057395458,-6.058345318,9.401446342,0.130690247,-0.7814188,1.58605051
2.088,3.156620741,-6.045435905,9.496946335,0.126344383,-0.767560899,1.592106819
2.09,3.253337145,-6.02378273,9.579593658,0.121090941,-0.754034579,1.597412586
2.092,3.3528018,-6.01288414,9.647981644,0.114545956,-0.740630448,1.602718353
2.094,3.467062712,-6.00404501,9.723925591,0.106499992,-0.726336241,1.607099175
2.096,3.57763648,-5.988233566,9.807655334,0.098506384,-0.71041882,1.612020969
2.098,3.700478077,-5.969606876,9.900474548,0.089238681,-0.692267418,1.617832899
2.1,3.848698378,-5.947283268,10.01019573,0.078208201,-0.673190951,1.623348236
2.102,4.005681515,-5.907060623,10.13162994,0.067736231,-0.652491331,1.629055381
2.104,4.175477982,-5.86595726,10.25498867,0.05745624,-0.629540265,1.634535789
2.106,4.34581089,-5.835483551,10.37391281,0.047926743,-0.604424954,1.638986349
2.108,4.483066082,-5.818676472,10.48051262,0.039933134,-0.576517165,1.642058134
2.11,4.613109589,-5.806255341,10.58324337,0.032253683,-0.547160745,1.644571424
2.112,4.719699383,-5.806408405,10.65299988,0.025987953,-0.516600013,1.646211982
2.114,4.805909634,-5.818235874,10.71422482,0.022165682,-0.484590679,1.64657855
2.116,4.86105299,-5.830896378,10.75440884,0.01870993,-0.452616245,1.646718144
2.118,4.913945675,-5.841449738,10.78700924,0.015411257,-0.421619177,1.646159649
2.12,4.936441898,-5.844791889,10.79450798,0.013753194,-0.392262757,1.644344449
2.122,4.946621418,-5.842292309,10.7830534,0.01308997,-0.364843637,1.642651558
2.124,4.948000908,-5.81819725,10.77694321,0.013439035,-0.338541508,1.641342521
2.126,4.933185577,-5.781959057,10.74960136,0.016109388,-0.311733246,1.639858961
2.128,4.90887928,-5.728740692,10.71990395,0.020664698,-0.284715563,1.637991548
2.13,4.883577824,-5.684706688,10.69018745,0.026319565,-0.258256376,1.636281133
2.132,4.84800005,-5.646724701,10.66973114,0.032079153,-0.232024074,1.634012103
2.134,4.799608231,-5.61002636,10.64192963,0.037280232,-0.207135677,1.631184697
2.136,4.743421078,-5.569076061,10.62294865,0.042551126,-0.185022354,1.628776193
2.138,4.686362267,-5.528853416,10.60736752,0.047839474,-0.165596843,1.626542091
2.14,4.65195322,-5.476027966,10.60800838,0.05284857,-0.148859128,1.624988794
2.142,4.63966608,-5.435642242,10.62164688,0.05614724,-0.133831844,1.624360442
2.144,4.646187782,-5.397986412,10.66075802,0.058119465,-0.120776787,1.624430299
2.146,4.664594173,-5.357686996,10.72230721,0.059864793,-0.110723689,1.624761939
2.148,4.703371048,-5.316659927,10.79015064,0.061208695,-0.10348057,1.625844002
2.15,4.755612373,-5.27548933,10.87329578,0.06112143,-0.098314397,1.628182769
2.152,4.80975008,-5.235984802,10.97708035,0.059515726,-0.094003432,1.630085111
2.154,4.872516632,-5.174798965,11.0883522,0.057910025,-0.09129817,1.631795526
2.156,4.927707672,-5.13105154,11.19850445,0.055676002,-0.089884453,1.635024428
2.158,4.986892223,-5.101699352,11.32033062,0.052551862,-0.089936815,1.63886416
2.16,5.048452377,-5.080026627,11.43971539,0.049078658,-0.091856681,1.643262386
2.162,5.107598305,-5.054945469,11.5763483,0.045134213,-0.094527029,1.648219109
2.164,5.181876183,-5.020162106,11.70604706,0.040055305,-0.097825706,1.652442813
2.166,5.253807545,-4.976357937,11.83980656,0.032951817,-0.100443699,1.656998158
2.168,5.366660595,-4.930341244,11.96310711,0.024364796,-0.102136664,1.661693096
2.17,5.481084347,-4.881336689,12.06116486,0.015830137,-0.104073986,1.666457772
2.172,5.585806847,-4.85292244,12.17685223,0.007923795,-0.104562677,1.671222568
2.174,5.683939934,-4.8382411,12.31173229,0.000296706,-0.101909772,1.675062299
2.176,5.776462078,-4.836670399,12.45422554,-0.007522369,-0.097354464,1.679146409
2.178,5.83744669,-4.83256197,12.60330772,-0.014503686,-0.092031211,1.683335185
2.18,5.908602715,-4.84136343,12.75874901,-0.020507619,-0.084194683,1.685988069
2.182,5.968706608,-4.841736794,12.89929771,-0.024836035,-0.073740162,1.686441779
2.184,6.014483929,-4.818350315,13.02825832,-0.025656341,-0.06096435,1.684731364
2.186,6.056210041,-4.801552296,13.14631271,-0.024102997,-0.044715334,1.681502581
2.188,6.087525845,-4.799656391,13.27410507,-0.02125811,-0.025464354,1.677662849
2.19,6.106219769,-4.791209698,13.39243698,-0.016301375,-0.002478367,1.672636271
2.192,6.129031658,-4.765333176,13.49913216,-0.009878564,0.023265239,1.66616106
2.194,6.14568615,-4.731622696,13.56815147,-0.003787365,0.050160762,1.658167481
2.196,6.176168919,-4.693114281,13.60090446,0.002775074,0.077527523,1.649231434
2.198,6.204746246,-4.673261166,13.62435818,0.010506882,0.104143798,1.64022553
2.2,6.225958347,-4.638622284,13.63628101,0.019024089,0.131056771,1.629928112
2.202,6.256298065,-4.592059612,13.61929226,0.027855454,0.159697622,1.618478775
2.204,6.277797699,-4.558464527,13.60839367,0.036808994,0.189979091,1.605615616
2.206,6.292479038,-4.522914886,13.59613514,0.046460666,0.22060962,1.592176557
2.208,6.27191782,-4.482184887,13.59629822,0.055745818,0.249808982,1.57912159
2.21,6.240946293,-4.439070225,13.57623482,0.064577185,0.27715829,1.565926909
2.212,6.213259697,-4.373124599,13.53914356,0.072919853,0.30469957,1.552976489
2.214,6.169455528,-4.281915188,13.49473667,0.08009316,0.332328141,1.540130854
2.216,6.112473488,-4.19282198,13.4254961,0.086166903,0.356518418,1.526691794
2.218,6.051880836,-4.092045307,13.34115219,0.090530232,0.377095848,1.512380123
2.22,5.995875835,-3.99449563,13.24646664,0.093584552,0.396835506,1.499307632
2.222,5.932036877,-3.897425175,13.14897442,0.095766217,0.415597796,1.487980485
2.224,5.856935501,-3.800344944,13.05736351,0.096970491,0.432073712,1.476426363
2.226,5.815295696,-3.700133324,12.97491646,0.097459182,0.447310418,1.465099216
2.228,5.787283897,-3.609910488,12.91247559,0.097022854,0.462023556,1.454801798
2.23,5.75876379,-3.540737152,12.87582493,0.094963364,0.47560221,1.444609046
2.232,5.74359417,-3.482873917,12.85714054,0.091909036,0.487749726,1.435411096
2.234,5.735846519,-3.446386337,12.8569212,0.088767447,0.498064607,1.427260399
2.236,5.740950584,-3.400168657,12.85657597,0.084334306,0.506354928,1.418882847
2.238,5.746648788,-3.356000423,12.86886311,0.078749254,0.512585759,1.41073215
2.24,5.764328003,-3.324971437,12.90484238,0.072989672,0.517647207,1.402057886
2.242,5.788863659,-3.312550545,12.94741249,0.066549405,0.522219956,1.393156767
2.244,5.836153984,-3.314599752,13.01470757,0.058887407,0.526304007,1.384796619
2.246,5.884727478,-3.309552908,13.10119629,0.049759336,0.529532909,1.376663327
2.248,5.95271349,-3.308192968,13.21072674,0.039409533,0.530545175,1.369245648
2.25,6.038147926,-3.294201136,13.33706379,0.029216811,0.529689968,1.362124801
2.252,6.13381052,-3.296604872,13.46461678,0.019373154,0.528066814,1.354811788
2.254,6.249824047,-3.300225019,13.59050369,0.009686577,0.525832772,1.347411633
2.256,6.370137691,-3.307015181,13.73176193,0.000698132,0.523354411,1.340290666
2.258,6.489263535,-3.298779011,13.84686565,-0.006736971,0.521399677,1.332977772
2.26,6.587665081,-3.308566332,13.95279503,-0.012601277,0.519322693,1.324949265
2.262,6.675197124,-3.314666986,14.07394123,-0.017208947,0.516914189,1.315681577
2.264,6.75524044,-3.323707581,14.20885944,-0.020018926,0.516250908,1.304965258
2.266,6.808228493,-3.342956781,14.33166313,-0.019914206,0.517228305,1.293358803
2.268,6.832898617,-3.355291843,14.4400816,-0.016074482,0.518275499,1.280722618
2.27,6.857175827,-3.346289635,14.52318954,-0.010419616,0.520265222,1.26770246
2.272,6.883952141,-3.313441277,14.57449245,-0.003682645,0.523616254,1.255450249
2.274,6.893280506,-3.2419312,14.61979008,0.003141593,0.527176678,1.24415791
2.276,6.916149616,-3.151889801,14.65773296,0.007190757,0.529585242,1.233249664
2.278,6.91905117,-3.051563263,14.67331505,0.009459685,0.52928853,1.22185266
2.28,6.903757095,-2.937608957,14.67752934,0.011972958,0.525064826,1.209966898
2.282,6.886011124,-2.819603443,14.66373825,0.014241886,0.51893872,1.198814273
2.284,6.858382225,-2.680950403,14.6584425,0.017697638,0.513598025,1.18795836
2.286,6.824557304,-2.55630827,14.64767742,0.022584561,0.509531438,1.1769104
2.288,6.783127785,-2.442459345,14.64738083,0.028047441,0.507245064,1.166735172
2.29,6.734535217,-2.316265583,14.64420223,0.033423055,0.505988419,1.157537222
2.292,6.705325603,-2.17460537,14.64673901,0.037192967,0.502968967,1.149055004
2.294,6.689562321,-2.0159657,14.63996887,0.039985493,0.495097548,1.140869379
2.296,6.693689823,-1.861175776,14.60637283,0.042062435,0.484957188,1.133434296
2.298,6.696783066,-1.698245645,14.56604576,0.042603485,0.475776762,1.126313329
2.3,6.707030296,-1.549881697,14.51836205,0.042812925,0.466997743,1.118040442
2.302,6.687838554,-1.41595006,14.49800205,0.042900193,0.45931831,1.109942079
2.304,6.72218132,-1.292255998,14.49222755,0.042306781,0.452075183,1.103170276
2.306,6.783577442,-1.167106271,14.43972778,0.040805798,0.444709897,1.097271085
2.308,6.813438416,-1.06455791,14.42681694,0.037664205,0.437623859,1.092017651
2.31,6.861265182,-0.98158443,14.41906071,0.033231068,0.429996759,1.086729288
2.312,6.906975269,-0.915044725,14.40848732,0.028902652,0.422474384,1.081405997
2.314,6.945033073,-0.854394853,14.40074062,0.023352506,0.414986938,1.076414347
2.316,6.99003458,-0.828987539,14.41757584,0.015725417,0.407848537,1.070899129
2.318,7.063680172,-0.812170625,14.44749451,0.008517207,0.401460648,1.064563632
2.32,7.165098667,-0.808608115,14.48688412,0.002426008,0.396329373,1.057878971
2.322,7.267790794,-0.799414396,14.5587759,-0.003508112,0.392681629,1.051368833
2.324,7.37556839,-0.794980288,14.63791847,-0.008761553,0.389609844,1.044300318
2.326,7.481027603,-0.797977865,14.70753288,-0.014067354,0.387096584,1.036673188
2.328,7.580406666,-0.797930002,14.79257488,-0.019373154,0.38481018,1.029168248
2.33,7.667325497,-0.793926895,14.88252068,-0.023753932,0.382611066,1.02105248
2.332,7.726021767,-0.801157355,14.96684456,-0.027419122,0.382349283,1.012692332
2.334,7.761915684,-0.799395204,15.03713799,-0.030176742,0.383832812,1.003930807
2.336,7.765516758,-0.781764329,15.09652328,-0.032567844,0.385682851,0.994680584
2.338,7.750442982,-0.768663287,15.13519573,-0.035430186,0.38707912,0.985866666
2.34,7.731327534,-0.753943682,15.14143944,-0.039130282,0.387009293,0.977227271
2.342,7.691526413,-0.709018946,15.128232,-0.042202063,0.387306005,0.968029439
2.344,7.651638508,-0.653234005,15.09752941,-0.043772858,0.387724906,0.957662165
2.346,7.596945763,-0.585861147,15.04073906,-0.044732787,0.387916893,0.946806192
2.348,7.512794495,-0.497476816,14.96968842,-0.04511676,0.388300836,0.935758293
2.35,7.405630112,-0.373686999,14.88186932,-0.045588002,0.3887721,0.924640536
2.352,7.273402691,-0.219596177,14.77563381,-0.046722464,0.389278233,0.913487852
2.354,7.132920265,-0.063475072,14.66708946,-0.047193702,0.389173508,0.902317762
2.356,6.990312576,0.11334151,14.53569603,-0.046443213,0.388806999,0.891147673
2.358,6.920621872,0.204819173,14.46535492,-0.044540804,0.387707442,0.878703475
2.36,6.693814278,0.476953715,14.24049091,-0.041573744,0.386014462,0.865107358
2.362,6.54117012,0.644203067,14.10385895,-0.038152896,0.384373874,0.851999939
2.364,6.392566204,0.793400168,13.95251656,-0.034225907,0.383064866,0.838473618
2.366,6.317532063,0.869459093,13.87901497,-0.029478611,0.381581336,0.823795378
2.368,6.182068348,1.029305696,13.74883652,-0.024713863,0.378771365,0.808995009
2.37,5.991642952,1.262529492,13.5562191,-0.019914206,0.375106156,0.794753134
2.372,5.897244453,1.400837898,13.45720387,-0.013875367,0.370777756,0.780441403
2.374,5.820534229,1.537805319,13.38665199,-0.007941248,0.36522761,0.765466511
2.376,5.788087845,1.611987352,13.35504913,-0.003316126,0.357914656,0.750840664
2.378,5.737943649,1.747949243,13.29873753,0.002024582,0.349257827,0.736057699
2.38,5.693076611,1.943172336,13.22972679,0.008307767,0.339100033,0.721187472
2.382,5.701820374,2.060909748,13.18003178,0.015603243,0.327074707,0.707259774
2.384,5.721692085,2.106571674,13.15824509,0.023928463,0.313670576,0.693698585
2.386,5.774919987,2.178043604,13.13556767,0.0320617,0.299044699,0.68027699
2.388,5.854101181,2.227843046,13.14263439,0.040421825,0.283947617,0.667553544
2.39,5.998375416,2.254983664,13.19281769,0.04918338,0.268012762,0.655755103
2.392,6.143857002,2.262597084,13.24402428,0.057491146,0.251117975,0.644637346
2.394,6.222635746,2.263535738,13.27178764,0.065921083,0.234450072,0.633798838
2.396,6.391254425,2.26072979,13.34138298,0.074403383,0.217572749,0.623379231
2.398,6.578518867,2.235734463,13.42019939,0.0832173,0.200276524,0.61315161
2.4,6.887438297,2.208105326,13.55783749,0.092816606,0.182823241,0.602365494
2.402,7.078543663,2.187036037,13.65817356,0.10239847,0.164671809,0.591649175
2.404,7.166372776,2.179997206,13.7010107,0.112922803,0.145909518,0.580985189
2.406,7.339319706,2.191642523,13.75391293,0.12447688,0.128176987,0.56969291
2.408,7.493573666,2.21081543,13.78746986,0.136746541,0.111177474,0.558470428
2.41,7.64413023,2.280266285,13.83921432,0.149627075,0.093846351,0.54726541
2.412,7.679871082,2.301804781,13.84959507,0.161826924,0.077632248,0.536409497
2.414,7.748671055,2.42945385,13.84895325,0.173730075,0.06314601,0.52565825
2.416,7.770506382,2.506077766,13.81343269,0.185511053,0.05030039,0.514662683
2.418,7.780092239,2.549211979,13.78968239,0.196314633,0.039077923,0.503876567
2.42,7.774384975,2.684426785,13.70103931,0.205442712,0.028187068,0.493491858
2.422,7.745779037,2.794368744,13.62851429,0.213890106,0.017453292,0.483264208
2.424,7.709674358,2.933577061,13.53782272,0.222704008,0.008342674,0.472460628
2.426,7.678808212,3.004244328,13.4872179,0.230383456,0.000226893,0.462075919
2.428,7.612938881,3.164569616,13.38930511,0.236352488,-0.007487462,0.451534122
2.43,7.498697281,3.446472406,13.28123093,0.241309226,-0.014102261,0.439665884
2.432,7.47719717,3.541359663,13.23458195,0.246807009,-0.019949114,0.427588224
2.434,7.416365147,3.731554985,13.13574886,0.252514243,-0.02422517,0.41540581
2.436,7.338027,3.922631264,13.05089855,0.25736624,-0.026284659,0.402856886
2.438,7.254239559,4.121732712,12.95048618,0.262165904,-0.026808258,0.390814126
2.44,7.115845203,4.369628906,12.77140903,0.266337246,-0.02576106,0.379923284
2.442,7.068641186,4.448120117,12.69779205,0.270875096,-0.022497294,0.369486213
2.444,6.985054493,4.589282036,12.53638458,0.276198357,-0.017051866,0.357670337
2.446,6.890560627,4.708685875,12.38066578,0.281207442,-0.011065387,0.344650179
2.448,6.791593552,4.820859432,12.22079086,0.287036836,-0.005148721,0.332083792
2.45,6.705296993,4.926060677,12.08177376,0.293512017,0.001658063,0.31970942
2.452,6.618483543,5.026348591,11.94290066,0.299620658,0.009494592,0.307108134
2.454,6.53592205,5.120297432,11.80741787,0.305258095,0.018360864,0.294698834
2.456,6.453235149,5.201479912,11.67567825,0.311645985,0.027017696,0.283354193
2.458,6.371487617,5.272942066,11.54976273,0.317737192,0.034016468,0.272725135
2.46,6.285057068,5.331551552,11.41772747,0.322414666,0.040980332,0.262410253
2.462,6.171811581,5.380173206,11.24907017,0.327161968,0.048537605,0.252845854
2.464,6.092831612,5.385153294,11.14071846,0.332258314,0.055396751,0.243578151
2.466,6.057349682,5.390765667,11.08351707,0.337162703,0.061994094,0.235706717
2.468,6.002933979,5.391196251,10.98408985,0.341054797,0.068765976,0.229353711
2.47,5.960346222,5.382194519,10.89994812,0.344842166,0.07531096,0.222651646
2.472,5.917058468,5.350744247,10.82230854,0.348926216,0.080197878,0.216455728
2.474,5.910642624,5.317723274,10.77426147,0.352783412,0.083130032,0.21141173
2.476,5.906840324,5.272942066,10.74404716,0.356570751,0.085573494,0.206524804
2.478,5.908669472,5.241913319,10.73696995,0.360323221,0.087214105,0.202004403
2.48,5.905346394,5.173372269,10.72634029,0.364686549,0.086603239,0.198583558
2.482,5.929681301,5.089680195,10.70776081,0.36898005,0.084159777,0.195302337
2.484,5.949495792,5.031261921,10.67115784,0.372313649,0.081262529,0.192073479
2.486,5.955931187,4.994429111,10.65347004,0.37524578,0.077562429,0.189490393
2.488,5.952895164,4.934459686,10.62934589,0.379294962,0.072902404,0.187500715
2.49,5.891009808,4.909166813,10.56297874,0.383448839,0.067526788,0.185737938
2.492,5.801677227,4.892570496,10.41972828,0.387044221,0.059969515,0.183119938
2.494,5.704089642,4.887235641,10.30434799,0.390081078,0.050597094,0.18079865
2.496,5.6089921,4.874891758,10.24281597,0.39322269,0.040770892,0.179227859
2.498,5.530883789,4.846534729,10.19051743,0.397638351,0.029199358,0.177307993
2.5,5.443189144,4.825350761,10.14879131,0.401652634,0.016598081,0.175283417
2.502,5.362494469,4.815687656,10.10529327,0.405178189,0.003892084,0.174131498
2.504,5.284548759,4.826011658,10.02456093,0.40914008,-0.009145525,0.173346102
2.506,5.186118603,4.858515263,9.928562164,0.413276523,-0.021729348,0.17271778
2.508,5.068007946,4.924097061,9.824252129,0.416540265,-0.034417894,0.173398465
2.51,4.959244251,4.988424778,9.722182274,0.419454992,-0.047158796,0.174009323
2.512,4.8799963,5.052484035,9.651898384,0.423469245,-0.057718039,0.174567834
2.514,4.786047459,5.140973568,9.586038589,0.426698089,-0.066427231,0.176365525
2.516,4.703390121,5.24104166,9.493038177,0.428007096,-0.074403383,0.177412719
2.518,4.683834553,5.268900394,9.462258339,0.429159015,-0.08175122,0.177849054
2.52,4.638804436,5.328583241,9.389753342,0.429647714,-0.088837259,0.179280222
2.522,4.591935158,5.420779228,9.304461479,0.429525524,-0.094561942,0.180501953
2.524,4.58478117,5.479504108,9.255054474,0.430729806,-0.098785639,0.181618959
2.526,4.582885265,5.505054951,9.224198341,0.432178438,-0.10239847,0.182404354
2.528,4.578843594,5.568578243,9.163902283,0.432126075,-0.104510315,0.182404354
2.53,4.592184067,5.62521553,9.113595963,0.432108611,-0.104108892,0.182072744
2.532,4.610227108,5.679017544,9.064791679,0.43305108,-0.102363557,0.181322262
2.534,4.638698578,5.720255375,9.020050049,0.433435053,-0.100077182,0.181008101
2.536,4.67582798,5.743938923,8.985840797,0.432632208,-0.096621424,0.180257604
2.538,4.69237709,5.760679245,8.976081848,0.430101484,-0.091734506,0.178686813
2.54,4.725330353,5.763648033,8.964800835,0.426872641,-0.085643306,0.177098557
2.542,4.773923397,5.766818047,8.938081741,0.423975378,-0.078120939,0.175196156
2.544,4.80977869,5.758304119,8.926130295,0.419943661,-0.069690995,0.173468277
2.546,4.850930214,5.743297577,8.923458099,0.413887382,-0.060580377,0.17181021
2.548,4.890616894,5.709404945,8.911668777,0.407010794,-0.050544735,0.170518667
2.55,4.928981304,5.651522636,8.921456337,0.4007276,-0.040160026,0.169349298
2.552,4.958707333,5.590116024,8.960606575,0.393135399,-0.029304078,0.168249741
2.554,4.99850893,5.49412775,9.008758545,0.384670556,-0.018570304,0.167167634
2.556,5.046651363,5.393877983,9.065463066,0.37648496,-0.008517207,0.165457219
2.558,5.089431286,5.30009222,9.113759041,0.367793232,0.000925025,0.16383405
2.56,5.128715515,5.198338509,9.166651726,0.359520376,0.009826204,0.162210897
2.562,5.153863907,5.092582226,9.201462746,0.352050364,0.018814649,0.160605192
2.564,5.174913406,4.965689659,9.21496582,0.34428364,0.027838001,0.159331113
2.566,5.177480698,4.855938911,9.242776871,0.336063147,0.036564648,0.157847583
2.568,5.182919979,4.687272549,9.290373802,0.328610599,0.043895032,0.156625852
2.57,5.177624226,4.576114178,9.31547451,0.322117955,0.04972443,0.155805543
2.572,5.169244289,4.524926186,9.327752113,0.316306025,0.054942966,0.15484561
2.574,5.155261993,4.417742729,9.346829414,0.310476631,0.05927138,0.154444188
2.576,5.140925884,4.333055019,9.350172043,0.304629773,0.062622413,0.1542871
2.578,5.1035285,4.228371143,9.340709686,0.298765451,0.065240406,0.154234752
2.58,5.056391239,4.123093128,9.323280334,0.293232769,0.066619217,0.154199839
2.582,4.998298168,4.042983055,9.29121685,0.287822247,0.066549405,0.154514
2.584,4.925476074,3.972124338,9.223748207,0.282778233,0.064943701,0.154950336
2.586,4.84944582,3.910258055,9.1555233,0.278833807,0.062395521,0.154810697
2.588,4.748151779,3.863274097,9.084472656,0.276285619,0.059463367,0.154130027
2.59,4.646369457,3.826212168,9.015089035,0.275238425,0.054803338,0.153519154
2.592,4.531266212,3.797050714,8.942994118,0.274191231,0.049113564,0.153920591
2.594,4.408280849,3.774133205,8.854811668,0.273126572,0.043650683,0.154391825
2.596,4.297754765,3.734226704,8.781989098,0.273004413,0.038257618,0.154583812
2.598,4.162559032,3.712458849,8.704924583,0.274540305,0.033231068,0.154653624
2.6,4.035159111,3.68568182,8.621797562,0.276425242,0.027384216,0.154688537
2.602,3.913772821,3.651349068,8.542377472,0.278449833,0.020909045,0.154705986
2.604,3.780272245,3.612428904,8.46728611,0.28148669,0.013857914,0.154077664
2.606,3.666940212,3.587481499,8.395804405,0.285570771,0.006562438,0.152559236
2.608,3.558530807,3.575261593,8.334867477,0.290387869,0.000436332,0.15132004
2.61,3.460483313,3.560867548,8.277463913,0.295815855,-0.006457718,0.149853975
2.612,3.393311739,3.551855803,8.230671883,0.301819801,-0.013997541,0.148003921
2.614,3.333925724,3.550610542,8.184205055,0.30742228,-0.021170843,0.146625117
2.616,3.284346581,3.526869774,8.134347916,0.313164413,-0.02851868,0.145106673
2.618,3.255740643,3.5020082,8.096327782,0.317719728,-0.034662239,0.143535882
2.62,3.223888397,3.478343964,8.081561089,0.320826411,-0.038746309,0.142279238
2.622,3.202848196,3.444729567,8.072874069,0.323671311,-0.041975167,0.14018485
2.624,3.199707031,3.395303726,8.062962532,0.325154841,-0.045186576,0.137444675
2.626,3.196058035,3.34877944,8.067904472,0.325434089,-0.048083819,0.135053575
2.628,3.211620331,3.315959692,8.063163757,0.326812893,-0.04988151,0.132191241
2.63,3.251316309,3.291835785,8.073908806,0.32927382,-0.050614547,0.129136905
2.632,3.295475006,3.254754305,8.092593193,0.330582827,-0.050282937,0.125681162
2.634,3.348664522,3.224175692,8.107925415,0.331123859,-0.049829151,0.12175417
2.636,3.417378187,3.197054148,8.141348839,0.331019133,-0.049968775,0.118246056
2.638,3.499164104,3.170009375,8.197172165,0.32939598,-0.049078658,0.11526154
2.64,3.583650589,3.144228458,8.284809113,0.325905323,-0.045867253,0.112137407
2.642,3.662860394,3.108353853,8.373558044,0.320058465,-0.040142573,0.108350039
2.644,3.760218143,3.061810493,8.463378906,0.313269138,-0.034033921,0.104283422
2.646,3.865649462,3.020457745,8.558983803,0.307335019,-0.029007372,0.100722954
2.648,3.986920357,2.988653421,8.644983292,0.301453263,-0.023823744,0.096761055
2.65,4.085590363,2.920351505,8.737552643,0.294646472,-0.017907077,0.091350533
2.652,4.183369637,2.850229979,8.825257301,0.285867482,-0.011082841,0.085049897
2.654,4.27900362,2.795345545,8.924502373,0.275988907,-0.003892084,0.077754416
2.656,4.37144804,2.750468493,9.036808968,0.267227352,0.002181662,0.070668384
2.658,4.472119808,2.705486298,9.154258728,0.259251207,0.007487462,0.064315386
2.66,4.625751019,2.631821632,9.331917763,0.252531678,0.011868238,0.058887407
2.662,4.670915127,2.613060474,9.386285782,0.244415909,0.016179202,0.051958453
2.664,4.751714706,2.576266289,9.502768517,0.234502435,0.021711895,0.043441243
2.666,4.827064991,2.520883799,9.601151466,0.226980075,0.026494099,0.037454765
2.668,4.862355232,2.458481312,9.70354557,0.219824225,0.029391345,0.029967302
2.67,4.89691782,2.404391289,9.797561646,0.212493837,0.031503193,0.021240657
2.672,4.917335987,2.348309517,9.866687775,0.205407798,0.033318337,0.012322024
2.674,4.908199787,2.280266285,9.92669487,0.199037343,0.034382988,0.003961897
2.676,4.898929119,2.23243022,9.980277061,0.194237694,0.034801867,-0.002583087
2.678,4.883644581,2.187189341,10.0135479,0.189141333,0.034348078,-0.010314896
2.68,4.864337921,2.146181583,10.02974224,0.184847817,0.033527777,-0.01850049
2.682,4.828099251,2.108209372,10.02018452,0.179943442,0.031939525,-0.027838001
2.684,4.761013508,2.071329355,10.00027466,0.174166411,0.029391345,-0.037315138
2.686,4.679706573,2.055700064,9.965548515,0.169593647,0.02708751,-0.044645522
2.688,4.604720116,2.043115854,9.913105011,0.165841192,0.024574235,-0.050789081
2.69,4.513701916,2.022401333,9.862042427,0.162106186,0.021973696,-0.057386424
2.692,4.410866737,2.008878946,9.796412468,0.157428697,0.01839577,-0.065135688
2.694,4.284998417,1.994159341,9.724768639,0.152367249,0.014102261,-0.073321283
2.696,4.171302795,1.975992084,9.636106491,0.149051115,0.011082841,-0.080773838
2.698,4.053277969,1.966128111,9.56010437,0.147375599,0.008901179,-0.086638145
2.7,3.947540522,1.960793734,9.468349457,0.145124123,0.006754424,-0.091245815
2.702,3.841075182,1.946208239,9.368989944,0.14199999,0.003682645,-0.095958203
2.704,3.760544062,1.940395117,9.287022591,0.137252688,-0.000715585,-0.100705497
2.706,3.673921585,1.934629917,9.220836639,0.131528005,-0.005044002,-0.105173543
2.708,3.584474325,1.937378407,9.149671555,0.126990154,-0.008063421,-0.108891092
2.71,3.501701832,1.939724684,9.099796295,0.122626834,-0.010873402,-0.111980327
2.712,3.425930262,1.953726053,9.058251381,0.118630029,-0.014538593,-0.114807755
2.714,3.353596687,1.956158519,9.024550438,0.114790306,-0.018552849,-0.117862083
2.716,3.284959793,1.950019717,9.002964973,0.110392071,-0.021764256,-0.120357908
2.718,3.240044355,1.920609474,8.974473953,0.106081113,-0.023701571,-0.121056035
2.72,3.213449717,1.884207964,8.942985535,0.10274753,-0.025132742,-0.121666901
2.722,3.196441174,1.852326751,8.90314579,0.099501222,-0.026651178,-0.122853726
2.724,3.193194628,1.815992475,8.879758835,0.095015727,-0.028221974,-0.124284893
2.726,3.193118095,1.780749798,8.871197701,0.090984017,-0.028850293,-0.125506625
2.728,3.216408968,1.757152438,8.870239258,0.087755151,-0.029112091,-0.125681162
2.73,3.256899595,1.728019953,8.873122215,0.08487536,-0.02953097,-0.126065135
2.732,3.311841726,1.725414872,8.901909828,0.082117744,-0.028134707,-0.127182141
2.734,3.390103579,1.707515836,8.952667236,0.078470007,-0.025028022,-0.128246799
2.736,3.479876518,1.681974649,9.018029213,0.075415678,-0.022828907,-0.129014731
2.738,3.56972599,1.658281565,9.089443207,0.073216565,-0.020978857,-0.12868312
2.74,3.672552347,1.631610155,9.177453995,0.070424035,-0.018657569,-0.127915174
2.742,3.76778388,1.612082958,9.262572289,0.067090459,-0.016126841,-0.127304316
2.744,3.869336367,1.594327688,9.35444355,0.063826688,-0.011309734,-0.126728356
2.746,3.981615067,1.596329212,9.441267014,0.061243605,-0.006510078,-0.126501471
2.748,4.088769913,1.599748135,9.518033981,0.057979837,-0.003298672,-0.126396745
2.75,4.174999714,1.597880602,9.57804203,0.055710908,0.001151917,-0.126675993
2.752,4.267434597,1.594298959,9.643500328,0.055100046,0.006126106,-0.127112329
2.754,4.355397224,1.567129493,9.68590641,0.054209925,0.010995574,-0.126972705
2.756,4.435297012,1.54718101,9.70942688,0.05227261,0.015184364,-0.126588732
2.758,4.511451721,1.53434813,9.738645554,0.050230574,0.018465584,-0.126117498
2.76,4.561605453,1.518096328,9.760403633,0.049392819,0.022008602,-0.125297189
2.762,4.589818954,1.502782941,9.7698946,0.048415434,0.025673794,-0.12527974
2.764,4.614507675,1.478850484,9.772546768,0.047088984,0.029688051,-0.124965571
2.766,4.614115238,1.445322156,9.776895523,0.045588002,0.033527777,-0.123883471
2.768,4.606108665,1.409303665,9.779183388,0.04309218,0.036041047,-0.123132981
2.77,4.606673717,1.379443288,9.776033401,0.040491637,0.037053339,-0.121876344
2.772,4.598936081,1.323821187,9.75867939,0.03848451,0.037786379,-0.120096102
2.774,4.581774235,1.283320785,9.745329857,0.03609341,0.039671335,-0.118123882
2.776,4.553062916,1.248375177,9.731070518,0.03354523,0.041067597,-0.116046943
2.778,4.527301311,1.211791635,9.722297668,0.031555552,0.042254422,-0.113620937
2.78,4.491541386,1.176367044,9.696468353,0.029478611,0.044017203,-0.1110553
2.782,4.453119755,1.14756,9.66796875,0.028012535,0.045361105,-0.109065622
2.784,4.400571346,1.130752683,9.627717018,0.02677335,0.046530478,-0.107320294
2.786,4.355503082,1.135684848,9.581375122,0.02469641,0.047961649,-0.105330624
2.788,4.288982391,1.130810142,9.535588264,0.022898721,0.049165923,-0.103585288
2.79,4.209475994,1.121491909,9.477620125,0.021223204,0.049672071,-0.101927228
2.792,4.127651691,1.11770916,9.425004959,0.019285887,0.049864057,-0.099029981
2.794,4.033636093,1.11452961,9.359020233,0.017540559,0.05120796,-0.095975652
2.796,3.946515799,1.107011795,9.289032936,0.016196655,0.053023104,-0.0940907
2.798,3.863791466,1.099359989,9.212198257,0.015027285,0.054070301,-0.092380278
2.8,3.787780285,1.114587069,9.13194561,0.014224433,0.055134952,-0.090425506
2.802,3.71191287,1.122679472,9.061325073,0.014224433,0.056827921,-0.087720245
2.804,3.64456892,1.118331671,9.002064705,0.014852752,0.058782689,-0.084735736
2.806,3.575874329,1.130398393,8.942487717,0.015428711,0.060196407,-0.082257368
2.808,3.511297941,1.128846884,8.897964478,0.015969763,0.061103977,-0.079674281
2.81,3.444959402,1.123148799,8.85955143,0.016510814,0.062098816,-0.077038832
2.812,3.393809557,1.128128648,8.8282547,0.017994344,0.063442715,-0.07532841
2.814,3.346222401,1.131135821,8.794113159,0.020804325,0.06462954,-0.074647732
2.816,3.32259655,1.13559866,8.769903183,0.023527037,0.065746553,-0.074036866
2.818,3.299181223,1.142848253,8.761600494,0.026529005,0.067142814,-0.073478363
2.82,3.29135704,1.142254472,8.763209343,0.030281462,0.068032935,-0.073251471
2.822,3.288330793,1.145931959,8.764415741,0.034644786,0.068382002,-0.072850041
2.824,3.284021139,1.136240244,8.770516396,0.039269909,0.069167398,-0.07236135
2.826,3.283523083,1.125399351,8.796037674,0.043982297,0.070424035,-0.072169364
2.828,3.291701555,1.107634306,8.819013596,0.048747044,0.071890108,-0.072099552
2.83,3.306507587,1.106848955,8.839593887,0.053529248,0.07311184,-0.072064646
2.832,3.345437288,1.11654079,8.85609436,0.058311451,0.073932149,-0.071418874
2.834,3.396893263,1.10963583,8.87884903,0.064367741,0.073635444,-0.071157075
2.836,3.458788395,1.098450184,8.891489983,0.070301861,0.072884947,-0.071680672
2.838,3.519131899,1.091545343,8.925746918,0.074612826,0.072256632,-0.071575955
2.84,3.596895456,1.081125736,8.977002144,0.079517201,0.07105235,-0.070895277
2.842,3.714173079,1.064184308,9.057427406,0.084665924,0.070563659,-0.070319317
2.844,3.748592138,1.052969813,9.086560249,0.088662729,0.070999995,-0.069760807
2.846,3.809481382,1.033308744,9.148119926,0.092188291,0.070860371,-0.068905599
2.848,3.854511499,1.030196309,9.202622414,0.095504418,0.070493847,-0.068242371
2.85,3.901409149,1.025407791,9.229187965,0.09812241,0.069708452,-0.067334801
2.852,3.952951431,1.021672964,9.248073578,0.099832833,0.068434358,-0.066339962
2.854,3.993988037,1.020820498,9.264363289,0.100199349,0.067928217,-0.065292768
2.856,4.041671276,1.028989673,9.277301788,0.10035643,0.068032935,-0.064245567
2.858,4.094065666,1.045911789,9.281017303,0.09978047,0.067439519,-0.063809238
2.86,4.12816906,1.062776566,9.278891563,0.099239424,0.066252701,-0.063006386
2.862,4.174175739,1.089831114,9.300429344,0.09869837,0.065449849,-0.062046453
2.864,4.226474762,1.101141214,9.314172745,0.096900679,0.065135688,-0.061348323
2.866,4.258758068,1.10811317,9.328384399,0.095225163,0.065310217,-0.0604233
2.868,4.27867794,1.118437052,9.358081818,0.092327915,0.065397486,-0.059742618
2.87,4.286779881,1.109089971,9.376862526,0.088941976,0.06478662,-0.059131756
2.872,4.280919075,1.092665792,9.385117531,0.085992374,0.064228117,-0.05857325
2.874,4.260558605,1.065007925,9.392835617,0.082571529,0.063372903,-0.058346357
2.876,4.229635239,1.053851008,9.390834808,0.079290308,0.061435588,-0.058259089
2.878,4.225018978,1.048861504,9.36073494,0.075433128,0.059393555,-0.058538344
2.88,4.200492859,1.043230295,9.328202248,0.071017444,0.057927478,-0.058328904
2.882,4.162185669,1.033548117,9.303149223,0.067003191,0.055745818,-0.05857325
2.884,4.114952564,1.031268954,9.277933121,0.063477628,0.052970741,-0.059620447
2.886,4.062031269,1.027581811,9.258579254,0.060161497,0.050265484,-0.060353484
2.888,4.019529343,1.035588026,9.230327606,0.056915186,0.046635196,-0.06096435
2.89,3.985483885,1.041717172,9.188611031,0.053686328,0.042324234,-0.061226148
2.892,3.921022415,1.048200727,9.153607368,0.050178215,0.038344882,-0.061645027
2.894,3.859520197,1.059865236,9.118815422,0.046844635,0.035168383,-0.062116269
2.896,3.796562195,1.066559434,9.077443123,0.044540804,0.03260275,-0.062325709
2.898,3.75313139,1.076136231,9.038427353,0.042655848,0.029653143,-0.063355453
2.9,3.703466177,1.086862206,8.993847847,0.040317107,0.026563911,-0.064402647
2.902,3.651186228,1.086967587,8.936414719,0.038414698,0.024050636,-0.064821526
2.904,3.600075006,1.08261013,8.888943672,0.03700098,0.021764256,-0.065624379
2.906,3.547258854,1.084218979,8.840129852,0.034854226,0.019250982,-0.067544244
2.908,3.519227505,1.081460953,8.804686546,0.033981562,0.016336281,-0.069882981
2.91,3.495965242,1.068867445,8.779604912,0.035203289,0.01452114,-0.071157075
2.912,3.462762594,1.03960073,8.753335953,0.036966074,0.013788101,-0.072623149
2.914,3.432423353,1.024383187,8.741565704,0.038309976,0.013159783,-0.07417649
2.916,3.403405428,1.012622833,8.725170135,0.038868483,0.012287118,-0.075433128
2.918,3.366678476,0.990739822,8.708075523,0.040352013,0.010663962,-0.076899208
2.92,3.341788292,0.973539829,8.700001717,0.042533673,0.009686577,-0.079063416
2.922,3.312694073,0.950775802,8.690262794,0.04436627,0.009285152,-0.082780965
2.924,3.285716295,0.928212822,8.678790092,0.047315877,0.008499754,-0.085887656
2.926,3.271360636,0.888459563,8.676893234,0.05136504,0.0084823,-0.088400923
2.928,3.265844345,0.833134294,8.683291435,0.055222217,0.009110618,-0.091647238
2.93,3.25848937,0.777550519,8.693509102,0.059323739,0.009686577,-0.094230324
2.932,3.247131348,0.725711227,8.698364258,0.063198373,0.010541788,-0.09590584
2.934,3.256430387,0.687566817,8.712183952,0.065711647,0.011850785,-0.097843155
2.936,3.269483566,0.647689045,8.737360954,0.068015479,0.013002703,-0.099588484
2.938,3.296030521,0.61602807,8.762529373,0.070511304,0.013788101,-0.100618228
2.94,3.322510242,0.603137672,8.803268433,0.072169364,0.014748032,-0.101979591
2.942,3.355732203,0.569666743,8.850147247,0.073478363,0.014817845,-0.10348057
2.944,3.393713951,0.537565291,8.891614914,0.074316122,0.015166911,-0.104405597
2.946,3.413738966,0.50641197,8.918391228,0.074036866,0.017191494,-0.104475409
2.948,3.433160543,0.47601518,8.93969059,0.073600531,0.019285887,-0.104178704
2.95,3.45265913,0.449018151,8.956468582,0.073740162,0.020455258,-0.10405653
2.952,3.459449053,0.449803472,8.96505928,0.073792517,0.021240657,-0.1049641
2.954,3.468096972,0.454706788,8.965394974,0.073199108,0.02157227,-0.1062731
2.956,3.48441577,0.461219013,8.963067055,0.072623149,0.021380283,-0.106796697
2.958,3.519198656,0.46136266,8.958327293,0.070511304,0.020996312,-0.107337751
2.96,3.543121576,0.455970913,8.968000412,0.06775368,0.020525072,-0.107233033
2.962,3.569898367,0.440370292,8.978562355,0.066305056,0.020647245,-0.106569804
2.964,3.589262724,0.432086378,8.999249458,0.063512534,0.020367993,-0.105976395
2.966,3.600908279,0.40739736,9.024215698,0.05984734,0.019949114,-0.105103724
2.968,3.610638142,0.389488727,9.051557541,0.05614724,0.020717058,-0.104126342
2.97,3.636993408,0.362779021,9.067617416,0.051487211,0.021991149,-0.102782436
2.972,3.655074358,0.348203123,9.088255882,0.047385689,0.022497294,-0.101281457
2.974,3.663636208,0.339344561,9.112283707,0.043493606,0.022392575,-0.10035643
2.976,3.673825979,0.340742797,9.125892639,0.037821285,0.022671826,-0.099344142
2.978,3.685691595,0.345061928,9.131236076,0.03202679,0.023404865,-0.097982787
2.98,3.692098379,0.341595113,9.138993263,0.027471483,0.023073252,-0.096813411
2.982,3.676555157,0.337400496,9.145629883,0.023090705,0.02263692,-0.096010558
2.984,3.668635368,0.331635267,9.141953468,0.019408062,0.023387412,-0.095678948
2.986,3.65949893,0.338444352,9.140698433,0.016022123,0.023073252,-0.095556773
