Time (s),Gyroscope x (rad/s),Gyroscope y (rad/s),Gyroscope z (rad/s)
0.21348,0.455600739,-1.118982911,-0.436995536
0.22348,0.508833289,-1.128547311,-0.394409508
0.23348,0.520561874,-1.181762457,-0.304996282
0.24348,0.561001182,-1.204172492,-0.207030952
0.253481563,0.60358721,-1.181797385,-0.179350033
0.263484688,0.611057222,-1.170051217,-0.236858636
0.27348,0.600340903,-1.124376059,-0.297229558
0.28348,0.567162216,-1.05882144,-0.383885175
0.293484688,0.525361538,-1.058804035,-0.450469464
0.30348,0.482164651,-0.984156251,-0.496371627
0.313484688,0.466561407,-0.915652096,-0.532552302
0.32348,0.501171291,-0.878686011,-0.552274525
0.33348,0.560145974,-0.955777228,-0.578157783
0.34348,0.631494999,-1.027719617,-0.634392262
0.35348,0.704013467,-1.06665802,-0.729355633
0.36348,0.752900124,-1.095455885,-0.859190702
0.37348,0.755570471,-1.127116203,-0.98803091
0.383481563,0.719791234,-1.171988606,-1.062888026
0.393481563,0.647412419,-1.232970357,-1.092139721
0.40348,0.552728295,-1.293533325,-1.070113778
0.41348,0.468638361,-1.296465516,-0.964818001
0.42348,0.407883435,-1.224400878,-0.784734964
0.43348,0.327755392,-1.093117118,-0.573619902
0.44348,0.164479822,-1.030843854,-0.384548396
0.453481563,-0.049706977,-1.076903105,-0.221778989
0.46348,-0.232181147,-1.159230232,-0.080913462
0.47348,-0.345208675,-1.208396196,0.033911746
0.48348,-0.38992402,-1.12936759,0.126920342
0.493481563,-0.342416137,-1.030878663,0.209701315
0.50348,-0.267541528,-1.106713295,0.3066369
0.51348,-0.24712117,-1.451904535,0.514348507
0.52348,-0.12135274,-1.501297355,0.875160456
0.533481563,0.083897978,-1.176421762,1.213457584
0.54348,0.322659016,-0.922301769,1.424450517
0.55348,0.559709609,-0.664342105,1.567794323
0.56348,0.726772547,-0.412997246,1.738435149
0.57348,0.810077131,-0.231832087,1.950405478
0.58348,0.809762955,-0.144129291,2.176181316
0.593481563,0.788644493,-0.032724924,2.370837688
0.60348,0.785642505,0.121422559,2.543241501
0.613481563,0.812555492,0.247854203,2.72192812
0.62348,0.886452734,0.300091922,2.921017885
0.63348,1.000981212,0.320267916,3.124680519
0.64348,1.12685442,0.357862294,3.319092512
0.65348,1.223196507,0.375071257,3.497343063
0.66348,1.270180821,0.337023079,3.668175936
0.67348,1.264630675,0.233594865,3.820752621
0.68348,1.217733622,0.131248757,3.967430115
0.693483125,1.154674888,0.121492371,4.134702206
0.70348,1.10055232,0.21889919,4.293702126
0.71348,1.059746504,0.359747261,4.412052631
0.72348,1.014402866,0.465845823,4.478794098
0.73348,0.95619607,0.509967744,4.538763523
0.74348,0.877586424,0.405631959,4.602538109
0.753481563,0.813585222,0.167795956,4.665072918
0.763478438,0.823010027,-0.130794972,4.682770729
0.77348,0.92865479,-0.340583563,4.616797447
0.78348,1.106189728,-0.405038565,4.463766575
0.79348,1.314459801,-0.308853477,4.243803024
0.80348,1.496008992,-0.050928708,3.997449636
0.81348,1.625913858,0.312920094,3.747570992
0.82348,1.691328764,0.734818518,3.492717981
0.83348,1.661518574,1.159875989,3.226555347
0.84348,1.527320147,1.502204895,2.959467649
0.85348,1.325088859,1.717124701,2.702432871
0.86348,1.107097268,1.787199736,2.446166277
0.87348,0.941430569,1.733251572,2.212990284
0.883481563,0.867515922,1.600589037,1.998663783
0.893481563,0.887779176,1.467455387,1.801127434
0.90348,0.976913154,1.37341702,1.62748456
0.91348,1.107847691,1.316571712,1.453754544
0.92348,1.245501876,1.29103744,1.265259027
0.93348,1.368373036,1.285400033,1.064877748
0.94348,1.459042907,1.278313994,0.847828567
0.953481563,1.494734883,1.278122067,0.607688725
0.96348,1.446319461,1.272257805,0.341613293
0.97348,1.320795417,1.219950199,0.076323248
0.98348,1.149386525,1.145354867,-0.186348811
0.99348,0.96869266,1.064319253,-0.450678915
1.00348,0.82067126,0.989200234,-0.701849222
1.01348,0.743039012,0.921272039,-0.920224845
1.023481563,0.73045522,0.882246494,-1.110657692
1.033481563,0.750212312,0.861023247,-1.284283042
1.04348,0.779498935,0.840323687,-1.444574118
1.05348,0.766705692,0.834843338,-1.599751353
1.06348,0.695269346,0.804893494,-1.755364895
1.07348,0.585296154,0.691185296,-1.906440616
1.083481563,0.477993309,0.512934804,-2.054060459
1.093481563,0.402734727,0.352451801,-2.197893143
1.103481563,0.375664681,0.272882223,-2.350365162
1.113481563,0.370131969,0.295571506,-2.509329557
1.12348,0.347512513,0.384251684,-2.666531563
1.13348,0.27864182,0.444535345,-2.806978226
1.14348,0.137828648,0.460609853,-2.923112392
1.15348,-0.061767202,0.423643768,-3.010832548
1.163478438,-0.307020873,0.321891069,-3.0806458
1.173481563,-0.531749487,0.199019894,-3.128223419
1.183481563,-0.692127764,0.087179199,-3.16450882
1.19348,-0.77094686,-0.019792033,-3.201073408
1.20348,-0.775624335,-0.109955743,-3.216641903
1.21348,-0.725742817,-0.199683115,-3.192294359
1.22348,-0.654899895,-0.271049619,-3.138939857
1.23348,-0.602609813,-0.323042989,-3.079493761
1.243481563,-0.626084507,-0.377130747,-3.038059711
1.253481563,-0.72555083,-0.494591415,-3.00077939
1.263478438,-0.862210095,-0.64090234,-2.943375587
1.27348,-1.005501628,-0.763372123,-2.860786676
1.28348,-1.13175869,-0.827320993,-2.741999626
1.293483125,-1.232359529,-0.831282854,-2.57139349
1.30348,-1.308612943,-0.785328329,-2.372443438
1.313481563,-1.370519757,-0.73511523,-2.170491457
1.32348,-1.410365701,-0.7283957,-1.981978416
1.333487813,-1.412145853,-0.771156251,-1.81714952
1.34348,-1.392598152,-0.876766145,-1.677645326
1.35348,-1.362212062,-1.085594773,-1.55817759
1.36348,-1.321266651,-1.370990992,-1.438011646
1.37348,-1.267859578,-1.658725977,-1.325909138
1.38348625,-1.218745947,-1.944069862,-1.235396385
1.393481563,-1.181011915,-2.218854427,-1.16519928
1.40348,-1.131793618,-2.396546602,-1.09943521
1.41348,-1.07271421,-2.439010382,-1.036201954
1.42348,-1.027248383,-2.407577038,-0.988519549
1.433481563,-1.032554269,-2.34462285,-0.974556923
1.44348,-1.08850944,-2.295945644,-0.987262964
1.453481563,-1.184694529,-2.279434919,-1.01251781
1.46348,-1.300985932,-2.285561085,-1.030145645
1.47348,-1.39959693,-2.297324419,-1.037615657
1.48348,-1.456756473,-2.279696703,-1.056325674
1.49348,-1.462009907,-2.224073172,-1.084163666
1.50348,-1.419231892,-2.113035202,-1.097916842
1.51348,-1.351233959,-1.983828545,-1.100325346
1.523481563,-1.298123479,-1.873366594,-1.095578074
1.533483125,-1.285295367,-1.820919514,-1.090691209
1.54348,-1.316554189,-1.828686118,-1.092820406
1.55348,-1.379368663,-1.867711782,-1.127081275
1.56348,-1.462411404,-1.917732835,-1.195201516
1.57348,-1.552522779,-1.945134521,-1.289152503
1.583483125,-1.626070857,-1.934139013,-1.40298295
1.593481563,-1.659162283,-1.863016844,-1.518401504
1.60348,-1.652477741,-1.738365412,-1.620276451
1.613481563,-1.622074127,-1.600676417,-1.687000394
1.62348,-1.565996647,-1.469043612,-1.718363881
1.633483125,-1.500302434,-1.353118896,-1.730005264
1.64348,-1.424537778,-1.241382837,-1.727684021
1.65348,-1.338737369,-1.094914794,-1.722797036
1.66348,-1.25759697,-0.914273262,-1.74079144
1.673481563,-1.207820177,-0.7484321,-1.78140521
1.683481563,-1.181518078,-0.609172285,-1.842509151
1.69348,-1.172651768,-0.511905074,-1.912968159
1.70348,-1.161464214,-0.41050145,-1.972030044
1.71348,-1.132352114,-0.291417629,-2.011701345
1.72348,-1.075122833,-0.175178692,-2.038631916
1.73348,-1.000632167,-0.091036372,-2.060465813
1.743481563,-0.925076842,-0.059306286,-2.085267067
1.753481563,-0.868301272,-0.088837259,-2.107013941
1.763478438,-0.818472147,-0.17896606,-2.098810673
1.77348,-0.750910461,-0.308661491,-2.050692081
1.78348,-0.643136382,-0.453593612,-1.976533055
1.79348,-0.484224141,-0.570076883,-1.887992501
1.80348,-0.281888127,-0.614600241,-1.799574137
1.813481563,-0.070458941,-0.571106613,-1.72293663
1.823481563,0.103096597,-0.476823956,-1.660087347
1.83348,0.208200321,-0.371929675,-1.620328784
1.84348,0.253229827,-0.271171808,-1.604184508
1.85348,0.271101981,-0.155945167,-1.593328476
1.86348,0.306933612,-0.030857421,-1.562593222
1.87348,0.386747509,0.110060461,-1.501925588
1.883481563,0.513667822,0.253561437,-1.407677889
1.893481563,0.66320765,0.383501202,-1.288873315
1.90348,0.811979532,0.50380677,-1.159108043
1.91348,0.933873296,0.625979781,-1.023600698
1.92348,1.011540413,0.762307465,-0.888023496
1.93348,1.051351428,0.899821937,-0.757629991
1.94348,1.068630219,1.04323566,-0.623710871
1.953481563,1.076937914,1.210298538,-0.493282408
1.963481563,1.090883136,1.372544408,-0.375734478
1.97348,1.112123847,1.503147364,-0.268414199
1.98348,1.133922935,1.57355392,-0.175580129
1.99348,1.138460755,1.591094494,-0.100426242
2.00348,1.122822642,1.553500056,-0.032288592
2.01348,1.106870413,1.459898114,0.044226643
2.023481563,1.118057966,1.348546147,0.136013508
2.033481563,1.16099298,1.232935429,0.242705479
2.04348,1.224418283,1.126592517,0.354074955
2.05348,1.280809879,1.045591831,0.450102955
2.06348,1.304825544,0.984662414,0.520771325
2.07348,1.276097536,0.933786035,0.560652137
2.08348,1.201414824,0.883468211,0.586325884
2.093484688,1.113659739,0.834529161,0.608334482
2.10348,1.050862789,0.800774515,0.625211835
2.11348,1.028871536,0.787736893,0.638284385
2.12348,1.054475546,0.805050552,0.665581286
2.13348,1.129402518,0.81044364,0.724939942
2.14348,1.244908452,0.803689182,0.811368644
2.15348,1.386646628,0.795119643,0.916559637
2.16348,1.508610249,0.765483975,1.021192193
2.173481563,1.576765299,0.722060144,1.121024966
2.18348,1.601130128,0.691900849,1.225308418
2.19348,1.599070668,0.690260291,1.312173486
2.20348,1.582961321,0.73284632,1.394901991
2.21348,1.567951441,0.799727321,1.471748829
2.22348,1.570028424,0.863449275,1.561546087
2.23348,1.592211485,0.901916325,1.67106545
2.243481563,1.624325514,0.924291492,1.810604572
2.253481563,1.657539129,0.926804721,1.969324827
2.263478438,1.668412566,0.900485158,2.133857012
2.27348,1.629037976,0.826884627,2.3151443
2.28348,1.539013863,0.69973743,2.518422842
2.29348,1.426195741,0.548783898,2.736798525
2.30348,1.333466411,0.419350266,2.94400382
2.31348,1.303603888,0.332537591,3.139219046
2.32348,1.351705194,0.294210166,3.33356142
2.33348,1.463667989,0.312745541,3.529806137
2.34348,1.584078312,0.324561417,3.737081528
2.35348,1.669093251,0.219283164,3.964462996
2.36348,1.722378135,-0.029077185,4.227274895
2.37348,1.793971539,-0.327092141,4.484030247
2.383481563,1.91363132,-0.527438521,4.677220345
2.393481563,2.084935427,-0.557772338,4.74904108
2.40348,2.239641428,-0.375682116,4.689176083
2.41348,2.301548243,-0.057142079,4.550439835
2.42348,2.211786032,0.271555781,4.386151791
2.43348,1.95914948,0.556184053,4.25982523
2.44348,1.659912825,0.785625041,4.209157944
2.453481563,1.407939672,1.122438669,4.169469357
2.46348,1.209966898,1.61689043,4.05757618
2.47348,0.983685017,2.18328476,3.874281883
2.48348,0.669281423,2.624573708,3.64011097
2.49348,0.261415422,2.868518353,3.406324148
2.50348,-0.13789846,2.953289032,3.248982668
2.51348,-0.406609356,2.938471317,3.237864971
2.523481563,-0.488604933,2.851606131,3.340944052
2.533481563,-0.400710136,2.780169964,3.437408447
2.54348,-0.203487933,2.772944212,3.438892126
2.55348,0.031625368,2.772089005,3.301534653
2.56348,0.232739657,2.718577147,3.016871452
2.57348,0.341037333,2.601134062,2.644226074
2.58348,0.337337226,2.451978207,2.267322302
2.59348,0.251065612,2.300186872,1.99531281
2.603481563,0.152210161,2.145969629,1.900907874
2.613481563,0.101386175,2.006325722,1.947735071
2.62348,0.12191125,1.87277317,2.037445068
2.63348,0.219579875,1.75662148,2.054776192
2.64348,0.359293491,1.652111173,1.970529079
2.65348,0.494608849,1.56650281,1.804199219
2.66348,0.62168628,1.527407408,1.579191327
2.673481563,0.754296422,1.568981171,1.321249127
2.68348,0.882839918,1.650837064,1.076536536
2.69348,0.999689698,1.68162477,0.86961031
2.70348,1.089783549,1.65535748,0.704589427
2.71348,1.1262784,1.586853385,0.611894965
2.72348,1.097463012,1.483617067,0.578210115
2.73348,1.019394398,1.382632375,0.595907748
2.74348,0.929265678,1.290269494,0.634549379
2.753484688,0.856415629,1.181971908,0.635247469
2.763478438,0.825156748,1.04698813,0.57002455
2.77348,0.845245481,0.884602666,0.441079617
2.78348,0.881024778,0.686368167,0.249250472
2.79348,0.912981749,0.459335744,0.027977629
2.803481563,0.927817047,0.242880017,-0.200573236
2.813481563,0.928794384,0.064734265,-0.40221113
2.823481563,0.909665585,-0.048677232,-0.553129733
2.83348,0.886278212,-0.074769907,-0.660223126
2.84348,0.888564587,-0.028658306,-0.745342851
2.85348,0.928550065,0.062727131,-0.844844103
2.86348,1.016741514,0.201550618,-0.967156768
2.87348,1.130222917,0.408825934,-1.112193584
2.883481563,1.2008214,0.630727112,-1.282223582
2.893481563,1.151131868,0.807319522,-1.480335951
2.90348,0.976232469,0.883154035,-1.674538732
2.91348,0.720245004,0.837758064,-1.846645594
2.92348,0.45420447,0.718028426,-1.987825274
2.93348,0.239284635,0.537753403,-2.101062298
2.94348,0.103847086,0.296007842,-2.197701216
2.953483125,0.05490806,0.060789816,-2.277933836
2.963481563,0.081018187,-0.118682392,-2.3211658
2.97348,0.168982774,-0.240733266,-2.339875698
2.98348,0.276791751,-0.271433592,-2.370663166
2.99348,0.370114505,-0.237626582,-2.436217785
3.00348,0.389400423,-0.194499493,-2.539646149
3.01348,0.283197135,-0.171164438,-2.678364754
3.023481563,0.047612581,-0.196908042,-2.834536791
3.033481563,-0.275133699,-0.237015709,-2.980987549
3.043481563,-0.615612507,-0.244607896,-3.09829092
3.05348625,-0.906524003,-0.203749731,-3.173916101
3.06348,-1.105107546,-0.142087251,-3.209520817
3.07348,-1.210682511,-0.081629045,-3.205000401
3.08348,-1.23982954,-0.035674531,-3.159063339
3.09348,-1.225919247,-0.027419122,-3.099722147
3.103483125,-1.223091841,-0.097686075,-3.065513849
3.113481563,-1.256532311,-0.198740646,-3.063750982
3.12348,-1.305192113,-0.281137645,-3.076212645
3.13348,-1.340447783,-0.348908782,-3.093561172
3.14348,-1.344165325,-0.393938273,-3.107192278
3.15348,-1.311300755,-0.418145984,-3.096091986
3.16348,-1.245903254,-0.48310715,-3.030205727
3.173481563,-1.15530324,-0.614984214,-2.902098656
3.183481563,-1.067198992,-0.754628003,-2.731702089
3.19348,-1.005396962,-0.869592845,-2.54975152
3.20348625,-0.986285567,-0.934693635,-2.386318922
3.21348,-1.028627276,-0.974207878,-2.264494896
3.22348,-1.12413168,-1.031332493,-2.182394505
3.23348,-1.251610518,-1.129105806,-2.111796141
3.24348,-1.363224268,-1.245275021,-2.061547995
3.253481563,-1.441066027,-1.403506517,-2.004859686
3.263478438,-1.445097685,-1.580238581,-1.930508733
3.27348,-1.372963309,-1.766482592,-1.854080677
3.28348,-1.264683008,-1.959271669,-1.806014299
3.293481563,-1.143190622,-2.142915249,-1.767704368
3.30348,-1.002202988,-2.269940376,-1.714210033
3.313481563,-0.860988379,-2.319385529,-1.617222071
3.32348,-0.743737161,-2.307272911,-1.466844559
3.33348,-0.647098243,-2.262871742,-1.269273281
3.34348,-0.553548634,-2.18068409,-1.032501817
3.35348,-0.444779694,-2.030900002,-0.760806501
3.36348,-0.325451553,-1.797654271,-0.48207739
3.37348,-0.199246794,-1.472464442,-0.229772598
3.383481563,-0.085521132,-1.114916325,-0.026424285
3.393481563,-0.021921335,-0.817547143,0.098523833
3.40348,-0.018797196,-0.630028963,0.181496784
3.41348,-0.054035392,-0.553775489,0.239110112
3.42348,-0.101717785,-0.565189958,0.278624356
3.43348,-0.126169845,-0.622942924,0.320704252
3.44348,-0.089762285,-0.600009263,0.362155825
3.453481563,-0.002583087,-0.491571993,0.406522095
3.463481563,0.102991879,-0.349432379,0.449928433
3.473481563,0.199002445,-0.228376329,0.49164179
3.48348,0.250594378,-0.181985483,0.512131989
3.49348,0.238603964,-0.203714833,0.511364043
3.50348,0.189682379,-0.258518159,0.516617477
3.51348,0.133849293,-0.32984978,0.54726541
3.523481563,0.066008352,-0.42051962,0.591701508
3.533481563,-0.005462881,-0.502829373,0.641583025
3.54348,-0.08265879,-0.584964573,0.661183059
3.55348,-0.140010312,-0.682563365,0.666349232
3.56348,-0.107320294,-0.716405272,0.682964802
3.57348,-0.003316126,-0.68539077,0.700156271
3.58348,0.105819315,-0.633746505,0.727069259
3.59348,0.181915671,-0.555974603,0.757909238
3.60348,0.200817585,-0.493107885,0.780214548
3.613481563,0.151459679,-0.458794713,0.77721256
3.62348,0.024399703,-0.433504879,0.719128013
3.63348,-0.168197379,-0.389557481,0.595279455
3.64348,-0.371144265,-0.29888764,0.439718246
3.65348,-0.5411219,-0.204308242,0.26499334
3.66348,-0.666471422,-0.149801612,0.078853972
3.673481563,-0.750439227,-0.092415184,-0.111666165
3.68348,-0.807860553,-0.03169518,-0.282743335
3.69348,-0.863501668,-0.049637165,-0.405108362
3.70348,-0.914133668,-0.153868228,-0.461447597
3.71348,-0.920888066,-0.289846838,-0.482007563
3.72348,-0.880797863,-0.397027493,-0.515133917
3.73348,-0.814894199,-0.457485706,-0.59117794
3.74348,-0.76356411,-0.473036587,-0.702355385
3.753481563,-0.714834511,-0.465217501,-0.855508029
3.763478438,-0.659647167,-0.405474901,-1.017876029
3.77348,-0.601457894,-0.31892401,-1.139106631
3.78348,-0.555398643,-0.266424507,-1.177015185
3.79348,-0.512515962,-0.227713108,-1.130711555
3.80348,-0.4509058,-0.182893053,-1.033182502
3.813481563,-0.387375832,-0.123202793,-0.935007811
3.823481563,-0.356989652,-0.045762531,-0.874305248
3.83348,-0.353987664,0.035011306,-0.861267626
3.84348,-0.366554052,0.079866268,-0.891706169
3.85348,-0.375821739,0.089046702,-0.935950279
3.86348,-0.363831341,0.071506143,-0.955567777
3.87348,-0.326481283,0.001710423,-0.940435767
3.883481563,-0.2822721,-0.162891582,-0.906419277
3.89348,-0.2388134,-0.416662455,-0.871285796
3.90348,-0.188704997,-0.716440201,-0.845995963
3.91348,-0.11081095,-0.978990078,-0.819693863
3.92348,0.02687807,-1.123730183,-0.785031617
3.93348,0.233455241,-1.140014172,-0.735987902
3.94348,0.47717303,-1.030564547,-0.671445608
3.953481563,0.700767159,-0.81646502,-0.588682115
3.963481563,0.845472395,-0.560634673,-0.487243563
3.973481563,0.897797346,-0.324404359,-0.370481044
3.98348,0.876835942,-0.128159523,-0.251187772
3.99348,0.817512214,0.030543262,-0.146276042
4.00348,0.751381695,0.14983651,-0.076654859
4.01348,0.694361806,0.227521122,-0.03536037
4.023481563,0.639785349,0.230348557,-0.03223623
4.033481563,0.591701508,0.131021872,-0.066776298
4.04348,0.566551328,-0.054070301,-0.118106432
4.05348,0.583271563,-0.277402639,-0.173991874
4.06348,0.671777248,-0.484101981,-0.224711135
4.07348,0.822940171,-0.678776026,-0.26874581
4.08348,0.996443391,-0.868475854,-0.295047909
4.09348,1.163960099,-1.01227355,-0.310651153
4.10348,1.289327025,-1.100866437,-0.324177444
4.113481563,1.33940053,-1.113275766,-0.352975398
4.12348,1.300165534,-1.042467713,-0.405282915
4.13348,1.191693306,-0.88235122,-0.489407778
4.14348,1.051944852,-0.674849033,-0.583376288
4.15348,0.938446105,-0.483578384,-0.661200523
4.16348,0.908129692,-0.368177205,-0.701831818
4.173481563,0.995884895,-0.323287338,-0.700295925
4.18348,1.165687919,-0.319761783,-0.685233712
4.19348,1.342419982,-0.323165148,-0.687834263
4.20348,1.440228224,-0.328889847,-0.749584019
4.21348,1.33643353,-0.340932608,-0.900258303
4.22348,1.053515673,-0.346395493,-1.08021915
4.23348,0.743929148,-0.284942448,-1.245240092
4.243481563,0.515256107,-0.181671321,-1.375022769
4.253481563,0.398441225,-0.043109633,-1.455133319
4.263478438,0.39083159,0.054611351,-1.46920073
4.27348,0.493648916,0.027401669,-1.446075082
4.28348,0.638127267,-0.107966065,-1.458885789
4.29348,0.655336201,-0.241187051,-1.573588848
4.30348,0.441847563,-0.36601299,-1.780410409
4.313481563,0.051190507,-0.472547889,-2.022888899
4.323481563,-0.356937289,-0.474607378,-2.259119272
4.33348,-0.673086226,-0.360166132,-2.444909573
4.34348,-0.861721396,-0.22390829,-2.547866583
4.35348,-0.929387808,-0.126990154,-2.54554534
4.36348,-0.903940916,-0.065519661,-2.461577415
4.37348,-0.855508029,-0.038327429,-2.334587336
4.383481563,-0.830602169,-0.019966567,-2.175116539
4.393481563,-0.828263462,0.001919862,-1.988087058
4.40348,-0.840777457,0.004991642,-1.79142344
4.41348,-0.849155009,0.011990412,-1.592386007
4.42348625,-0.823149621,0.062029,-1.379787445
4.43348,-0.718656778,0.128246799,-1.146105409
4.44348,-0.521975636,0.225653619,-0.891234934
4.453481563,-0.267436802,0.373517901,-0.598141789
4.46348,-0.007347836,0.531732023,-0.257924765
4.473484688,0.222651646,0.669909716,0.133412972
4.48348,0.385368705,0.777771056,0.565853179
4.49348,0.471675217,0.840672731,1.012639999
4.50348,0.496266931,0.854321241,1.420802712
4.51348,0.493299872,0.84082979,1.751629829
4.52348625,0.503126085,0.832120597,1.98916924
4.533481563,0.543704987,0.835698545,2.172323942
4.54348,0.572118938,0.771348238,2.304183722
4.55348,0.587477803,0.67561698,2.374921799
4.56348,0.61290729,0.614530444,2.414994717
4.57348,0.639820278,0.609800577,2.473323584
4.58348,0.632175684,0.628562868,2.563277721
4.59348,0.595698297,0.661933541,2.686253786
4.603481563,0.563409746,0.765972674,2.803120852
4.613481563,0.533128262,0.943594813,2.861432314
4.62348,0.461447597,1.094845057,2.831500053
4.63348,0.342189252,1.179144382,2.706639051
4.64348,0.170955002,1.237246394,2.556575775
4.65348,-0.022898721,1.261139989,2.447911501
4.663478438,-0.216089219,1.214696765,2.446951628
4.673487813,-0.347844124,1.137448549,2.571149349
4.68348,-0.369643271,1.097079039,2.76762104
4.69348,-0.306235462,1.109593034,2.938733101
4.70348,-0.230994329,1.159823656,3.021130085
4.71348,-0.163048655,1.244489551,3.010012388
4.723483125,-0.130428448,1.355073571,2.916340351
4.73348,-0.143727869,1.441868901,2.793050289
4.74348,-0.169680908,1.464819908,2.702363014
4.753481563,-0.211272106,1.373783588,2.687527895
4.76348,-0.227939993,1.157449961,2.804726601
4.773487813,-0.15746361,0.950331748,3.022247076
4.78348,-0.015533431,0.838822663,3.22482729
4.793481563,0.180240154,0.775292695,3.399796724
4.80348,0.332520127,0.788295388,3.461982727
4.813481563,0.418006361,0.87769115,3.414684296
4.823487813,0.418198347,0.990788519,3.249192238
4.83348,0.34201473,1.064807892,3.002507448
4.84348,0.257785141,1.071230769,2.741755247
4.85348,0.222320035,1.036620855,2.516031742
4.86348,0.206926242,0.957574904,2.355461359
4.87348,0.175318316,0.820618927,2.263657093
4.883481563,0.160727367,0.674499929,2.238437176
4.893481563,0.18580775,0.618247986,2.231194019
4.903522188,0.226980075,0.641966999,2.180404902
4.91348,0.272027016,0.675250411,2.063642502
4.923481563,0.328593135,0.655283868,1.915376663
4.93348,0.417604923,0.576691687,1.762974501
4.94348,0.538451552,0.466701031,1.616733432
4.953481563,0.678165138,0.340740621,1.49607873
4.963481563,0.811822474,0.181444421,1.411692142
4.973481563,0.916926146,0.018273598,1.34179163
4.98348,0.981712818,-0.080651663,1.229549527
4.99348,0.981834948,-0.09812241,1.042729497
5.00348,0.938795149,-0.058974676,0.786480248
5.01348,0.879750669,0.029792771,0.483787805
5.02348,0.841318488,0.168773338,0.171984747
5.033481563,0.854565561,0.321629286,-0.10035643
5.043481563,0.900223374,0.445285857,-0.306776524
5.05348,0.944676936,0.543251157,-0.492723912
5.06348,0.956335723,0.614408255,-0.649768651
5.07348,0.905389547,0.682179391,-0.810338914
5.08348,0.773809195,0.738309205,-0.994785309
5.09348,0.601178646,0.765204728,-1.18692863
5.103481563,0.463454723,0.761522055,-1.36954236
5.113481563,0.409750938,0.737611055,-1.516691089
5.12348,0.457974404,0.691726327,-1.605039716
5.13348,0.604931116,0.654899895,-1.626594543
5.14348,0.818611801,0.642281175,-1.597080946
5.15348,1.033758521,0.649646461,-1.557531834
5.16348,1.175828338,0.658320725,-1.551370859
5.173481563,1.165810108,0.638389051,-1.59050107
5.183481563,1.006636143,0.587512732,-1.653926373
5.19348,0.76459384,0.555259049,-1.729219913
5.20348,0.503998697,0.532482505,-1.811145663
5.21348,0.30288443,0.444116473,-1.86629796
5.22348,0.214745313,0.331961632,-1.867065907
5.23348,0.253997773,0.252200067,-1.834026933
5.24348,0.354738176,0.244346097,-1.822141171
5.253481563,0.38980183,0.269147217,-1.865913987
5.263478438,0.300161719,0.255795449,-1.943947673
5.27348,0.117949352,0.232477859,-2.020969152
5.28348,-0.089273594,0.214832574,-2.082090616
5.29348,-0.264714092,0.180903375,-2.115112066
5.30348,-0.363063395,0.131754905,-2.116857529
5.313481563,-0.4031187,0.058677968,-2.104832172
5.323481563,-0.409803301,-0.040142573,-2.085930347
5.33348,-0.421339929,-0.131685093,-2.073765278
5.34348,-0.468516171,-0.17921041,-2.061251402
5.35348,-0.543530405,-0.190188527,-2.04289031
5.36348,-0.626276493,-0.177552342,-2.019171476
5.37348,-0.708045185,-0.155369207,-1.982781291
5.383481563,-0.773512483,-0.143169358,-1.914504051
5.393487813,-0.806970417,-0.192789063,-1.81418252
5.40348,-0.821788251,-0.324386895,-1.681677103
5.41348,-0.811979532,-0.489634663,-1.510809302
5.42348,-0.75309211,-0.632577121,-1.31503582
5.43348,-0.647674203,-0.734574199,-1.133102655
5.44348,-0.530737162,-0.826919556,-0.985151112
5.453481563,-0.4074471,-0.922336698,-0.847235203
5.463481563,-0.270630747,-1.022448778,-0.712652862
5.47348,-0.137758836,-1.142283082,-0.598525763
5.48348,-0.038135443,-1.291578531,-0.521155298
5.49348,0.017435839,-1.43633616,-0.473612547
5.50348,0.019442968,-1.54431963,-0.455670565
5.51348,-0.030630529,-1.607099175,-0.460208416
5.523478438,-0.125175014,-1.646124721,-0.493701279
5.53348,-0.242426232,-1.682689428,-0.560198307
5.54348,-0.399802566,-1.750530362,-0.678985417
5.55348,-0.608055234,-1.86003232,-0.822905302
5.56348,-0.803741574,-1.97824347,-0.955288529
5.57348,-0.992987633,-2.089211464,-1.087217927
5.58348,-1.147885561,-2.166808844,-1.183263421
5.59348,-1.261820674,-2.232590199,-1.23129487
5.60348,-1.318927884,-2.279434919,-1.239428163
5.613481563,-1.315576792,-2.274111748,-1.24654901
5.62348,-1.287197828,-2.246605158,-1.275992751
5.63348,-1.266602874,-2.208365202,-1.344950676
5.64348,-1.273462057,-2.156162262,-1.457978249
5.65348,-1.30740869,-2.063834429,-1.601967931
5.66348,-1.357394934,-1.910699248,-1.749849677
5.673481563,-1.398427606,-1.720650315,-1.890732646
5.68348,-1.427592039,-1.524492741,-2.024040937
5.69348,-1.472865939,-1.354253292,-2.137487173
5.70348,-1.525662065,-1.214627028,-2.209639072
5.71348,-1.556135535,-1.096921921,-2.237739086
5.72348,-1.545698524,-0.995954692,-2.222589493
5.73348,-1.466006756,-0.891322196,-2.183110237
5.74348,-1.327235579,-0.783251405,-2.167123079
5.753481563,-1.189564109,-0.702145934,-2.197142601
5.763478438,-1.102821231,-0.642438233,-2.233148813
5.77348,-1.050967455,-0.577442169,-2.241369247
5.78348,-1.005239844,-0.504696846,-2.190527916
5.79348,-0.936927617,-0.449561894,-2.08420229
5.80348,-0.839660466,-0.430136383,-1.950562477
5.813481563,-0.737558663,-0.436506838,-1.825474739
5.823481563,-0.640797615,-0.477469712,-1.723477721
5.83348,-0.559116244,-0.548487186,-1.6487602
5.84348,-0.482723176,-0.658390522,-1.583432555
5.85348,-0.390185803,-0.790826142,-1.516586423
5.86348,-0.26350981,-0.916734159,-1.452428102
5.87348,-0.107861347,-1.005833268,-1.396298289
5.883481563,0.044331364,-1.055592537,-1.343973279
5.893481563,0.167638868,-1.070550084,-1.302486897
5.90348,0.250053316,-1.045556903,-1.27260685
5.91348,0.305292994,-0.963212311,-1.261646152
5.92348,0.344877064,-0.836623549,-1.278732896
5.93348,0.36807248,-0.701063871,-1.314739108
5.943478438,0.408145249,-0.554229319,-1.341268063
5.953481563,0.499740124,-0.38753292,-1.33222723
5.96348,0.645440221,-0.200922295,-1.279116869
5.97348,0.824493527,-0.011815879,-1.180802464
5.98348,0.999829292,0.139067829,-1.052451015
5.99348,1.142911434,0.286705226,-0.9309237
6.00348,1.237525702,0.460103691,-0.839451015
6.01348,1.290339351,0.656383395,-0.769184053
6.023478438,1.302015662,0.856066525,-0.700540245
6.033481563,1.273113012,1.016322732,-0.617270589
6.04348,1.211415529,1.119087696,-0.513161719
6.05348,1.162040234,1.144848704,-0.413241595
6.06348,1.133032799,1.1233114,-0.327545941
6.07348,1.107359052,1.073517084,-0.278659254
6.08348,1.074616671,0.991853178,-0.2462136
6.093487813,1.049850464,0.884655058,-0.213174507
6.103481563,1.048035264,0.777369618,-0.161495313
6.113481563,1.085455179,0.693768382,-0.094177969
6.12348,1.146628976,0.642298639,-0.023369959
6.13348,1.211293459,0.63294363,0.056461401
6.143483125,1.274125218,0.663836002,0.157830119
6.15348,1.340849161,0.692825913,0.27022934
6.16348,1.37477839,0.728779674,0.362888843
6.173481563,1.346730947,0.762586713,0.449771345
6.18348,1.279762626,0.778347015,0.532691956
6.19348,1.203613997,0.795416355,0.619050801
6.20348,1.144220352,0.810845077,0.715550065
6.21348,1.122299075,0.834616423,0.831789017
6.22348,1.154517889,0.86767298,0.971572459
6.23348,1.229741573,0.901706874,1.130100727
6.243487813,1.316850901,0.914779425,1.287354827
6.253481563,1.387658954,0.885161161,1.416526675
6.263478438,1.425131202,0.840986907,1.512380123
6.273478438,1.430681348,0.801961362,1.593415737
6.28348,1.409946799,0.761836231,1.675376415
6.29348,1.376750588,0.7427423,1.774947524
6.30348,1.349645615,0.748344839,1.900017738
6.313481563,1.336014628,0.764820755,2.047375917
6.32348,1.350169301,0.800146222,2.196619034
6.33348,1.387658954,0.862943113,2.32879281
6.34348,1.432479024,0.961606622,2.424436808
6.35348,1.469340324,1.107201934,2.483620882
6.36348,1.462341547,1.270704389,2.509783506
6.37348,1.396647334,1.407468438,2.519557238
6.383481563,1.271367669,1.504002571,2.536591768
6.393489375,1.098510265,1.558997869,2.567553759
6.40348,0.905162632,1.603172183,2.6141541
6.41348,0.72249651,1.648777604,2.671523094
6.42348,0.559604943,1.689723015,2.726797581
6.43348,0.403485209,1.69164288,2.778110266
6.443483125,0.261101246,1.630643606,2.830383062
6.453481563,0.160954267,1.541492224,2.887996197
6.463481563,0.119205989,1.45464468,2.943061352
6.473481563,0.130463362,1.369699478,2.976641655
6.48348,0.175004169,1.30184114,2.978369474
6.493484688,0.214884937,1.29376018,2.931332827
6.50348,0.203819543,1.328143239,2.84909296
6.51348,0.122975901,1.352246165,2.77866888
6.52348,-0.008779006,1.328998446,2.7648983
6.533481563,-0.147532687,1.314389944,2.780571222
6.543487813,-0.285989642,1.355213284,2.762437344
6.55348,-0.395893037,1.410575151,2.704579592
6.56348,-0.482583523,1.483198285,2.584047318
6.57348,-0.590427458,1.601374507,2.391834021
6.58348,-0.747786343,1.7338624,2.156703234
6.593484688,-0.951501131,1.819401026,1.938345194
6.603481563,-1.146576643,1.776396155,1.820291162
6.613481563,-1.318578839,1.607867122,1.796362638
6.62348,-1.41869092,1.468031287,1.848739982
6.63348,-1.455988526,1.415444613,1.910961032
6.64348,-1.471364856,1.460439205,1.917767763
6.65348,-1.513375044,1.630800724,1.847099423
6.66348,-1.559224844,1.885391951,1.690438628
6.673481563,-1.57491529,2.106629848,1.495310783
6.68348,-1.529466867,2.21799922,1.325263381
6.693481563,-1.378565788,2.218365908,1.21331799
6.70348,-1.127465248,2.169932842,1.16713655
6.71348,-0.833813608,2.109125614,1.162581205
6.72348,-0.57629025,2.04107523,1.155565023
6.73348,-0.444116473,1.951958776,1.124393463
6.743481563,-0.428076893,1.850939155,1.076501608
6.753481563,-0.461517423,1.784476995,1.01602602
6.76348,-0.496650904,1.740529537,0.897308648
6.77348,-0.529602706,1.692620277,0.723718226
6.78348,-0.575609565,1.649266362,0.526967287
6.79348,-0.626293957,1.622493029,0.327231795
6.80348,-0.699807227,1.594166279,0.139731064
6.813481563,-0.803933561,1.5235852,-0.01733112
6.82348,-0.891269803,1.432862997,-0.106465086
6.83348,-0.908723116,1.354584932,-0.115278997
6.84348,-0.835209846,1.241749406,-0.08618436
6.85348,-0.680608571,1.111111522,-0.044244096
6.86348,-0.456089437,1.034404278,-0.017505653
6.87348,-0.235235482,1.032100439,-0.032428216
6.883481563,-0.150220484,1.051107049,-0.092938781
6.893487813,-0.183713362,1.077304482,-0.193434834
6.90348,-0.296444178,1.152056932,-0.313775301
6.91348,-0.430171311,1.259097934,-0.423835754
6.92348,-0.547562122,1.303987861,-0.492130488
6.93348,-0.590916097,1.251401067,-0.510264456
6.94348,-0.534943402,1.187679052,-0.483211845
6.953481563,-0.409663677,1.142178416,-0.404322982
6.963481563,-0.300318807,1.113816738,-0.307736456
6.973481563,-0.247871652,1.091493964,-0.226718262
6.98348,-0.268030226,1.043916345,-0.173398465
6.99348,-0.343306273,0.941622555,-0.134721965
7.00348,-0.412700564,0.816273034,-0.108454756
7.01348,-0.423765928,0.708795667,-0.090722211
7.02348,-0.338192433,0.608299613,-0.102939516
7.03348,-0.185668126,0.550511777,-0.113551117
7.04348,-0.035534903,0.511730552,-0.102293745
7.05348,0.059550636,0.472198814,-0.098454021
7.06348,0.103253677,0.463245302,-0.115139373
7.07348,0.101351269,0.46488589,-0.141755641
7.083478438,0.072658055,0.442126811,-0.162856668
7.09348,0.028082348,0.384845108,-0.17544049
7.10348,-0.024940755,0.292063385,-0.180432141
7.11348,-0.077667154,0.192003667,-0.188687548
7.12348,-0.144827425,0.109589227,-0.21617648
7.13348,-0.216420829,0.05318018,-0.257313877
7.14348,-0.272323728,0.030839968,-0.303861827
7.15348,-0.298032433,0.04621632,-0.336132973
7.16348,-0.288153857,0.078382738,-0.340182126
7.173481563,-0.23188445,0.118246056,-0.323357135
7.18348,-0.138334796,0.152210161,-0.294210166
7.193481563,-0.029042279,0.172403619,-0.253875583
7.20348,0.075398222,0.183678448,-0.2147104
7.21348,0.160168871,0.176330611,-0.173189014
7.22348,0.214413702,0.16076228,-0.135071024
7.23348,0.232163697,0.137846097,-0.107966065
7.243481563,0.205547422,0.120078653,-0.089762285
7.253481563,0.158737689,0.121248022,-0.069341928
7.263478438,0.10957177,0.136833817,-0.047490411
7.27348,0.083322018,0.168354452,-0.025377087
7.28348,0.092991143,0.19980529,-0.024801129
7.29348,0.153274819,0.226334304,-0.052447144
7.30348,0.210923046,0.258116752,-0.068818331
7.313481563,0.241256863,0.273702532,-0.087301366
7.32348,0.274819553,0.256772846,-0.096202545
7.33348,0.299952298,0.218654841,-0.101857416
7.34348,0.305851489,0.217433125,-0.10718067
7.35348,0.296356916,0.3114191,-0.116291285
7.36348,0.280491859,0.460260779,-0.134303078
7.37348,0.271084547,0.603639603,-0.144181654
7.383481563,0.273021847,0.731432557,-0.137828648
7.393481563,0.288956702,0.844163418,-0.121963605
7.403481563,0.316515446,0.898914397,-0.097616263
7.41348,0.364337474,0.932197809,-0.062744588
7.42348,0.44282493,0.99578017,-0.018692477
7.43348,0.550913155,1.119960308,0.026476644
7.44348,0.684238851,1.296430588,0.063564889
7.453481563,0.8257851,1.407869816,0.073809974
7.46348,0.97462678,1.35849452,0.073652893
7.473481563,1.096450686,1.232219934,0.058800142
7.48348,1.136261702,1.089539289,0.017488198
7.49348,1.070375562,0.941256046,-0.042062435
7.50348,0.907291949,0.778539002,-0.100967295
7.51348,0.666192174,0.618160725,-0.157777756
7.523478438,0.369538575,0.552885413,-0.226142317
7.53348,0.083514005,0.594145,-0.265883446
7.54348,-0.138631508,0.668722928,-0.257331342
7.55348,-0.270054787,0.728640079,-0.226107404
7.56348,-0.316567808,0.779621124,-0.196698606
7.57348,-0.303495288,0.805469453,-0.177203283
7.583478438,-0.251187772,0.797283828,-0.153658792
7.59348,-0.166591674,0.757944107,-0.115121916
7.60348,-0.071977377,0.662910938,-0.069097586
7.613484688,0.004258603,0.553897679,-0.042568579
7.62348,0.051050879,0.44669956,-0.046931904
7.63348,0.067910761,0.355733007,-0.071610861
7.64348,0.068957962,0.292307734,-0.1062731
7.65348,0.070912726,0.276425242,-0.15041247
7.66348,0.070074968,0.29377383,-0.197501451
7.673481563,0.064088494,0.332223415,-0.228254154
7.68348,0.054052848,0.366780937,-0.241763011
7.69348,0.035569809,0.379731297,-0.235270381
7.70348,0.003857178,0.356675476,-0.219352975
7.71348,-0.034016468,0.311488897,-0.192736715
7.72348,-0.067561693,0.264103234,-0.162193447
7.73348,-0.093636915,0.22800982,-0.134582341
7.743481563,-0.10791371,0.191567332,-0.115209185
7.753481563,-0.112311937,0.165858641,-0.09482374
7.763481563,-0.108699106,0.150133222,-0.077824228
7.77348,-0.099134699,0.128630772,-0.065432392
7.78348,-0.083164938,0.107023589,-0.064105943
7.79348,-0.062186081,0.088366017,-0.064193211
7.80348,-0.048764501,0.07417649,-0.056967545
7.813490938,-0.04675737,0.079569563,-0.037734017
7.82348,-0.051225413,0.090128802,-0.01293289
7.83348,-0.053529248,0.087580621,0.00731293
7.84348,-0.050352748,0.073338732,0.020245818
7.85348,-0.038659044,0.049567349,0.019128809
7.863487813,-0.031468287,0.013473942,0.004572763
7.87348,-0.027174776,-0.014241886,-0.011013027
7.883481563,-0.02412045,-0.026249751,-0.027384216
7.893481563,-0.028413961,-0.024940755,-0.039269909
7.903481563,-0.041067597,-0.007749262,-0.040491637
7.91348,-0.058904864,0.017889624,-0.037995819
7.92348,-0.079011053,0.042184606,-0.032306045
7.93348,-0.101438537,0.05560619,-0.030246556
7.943478438,-0.120898955,0.064280473,-0.029391345
7.95348,-0.136886179,0.059184115,-0.028640853
7.96348,-0.146380767,0.049026299,-0.033649947
7.973481563,-0.150168121,0.02724459,-0.042010076
7.98348,-0.147096351,0.008499754,-0.054070301
7.99348,-0.131702542,0.002443461,-0.065833822
8.00348,-0.108402401,0,-0.081873395
8.01348625,-0.092223197,-0.000314159,-0.104039073
8.023478438,-0.087632984,-0.006003933,-0.121125847
8.033481563,-0.096324719,-0.013700834,-0.124407068
8.04348,-0.108646743,-0.025813419,-0.115348808
8.05348,-0.114563413,-0.036686819,-0.096830867
8.06348,-0.109501958,-0.04881686,-0.075171329
8.07348,-0.098750725,-0.060301125,-0.056251962
8.08348,-0.083409287,-0.067352258,-0.038379788
8.09348,-0.068975411,-0.069464102,-0.023945916
8.10348,-0.059742618,-0.076096356,-0.024155356
8.11348625,-0.061226148,-0.085346602,-0.0397586
8.12348,-0.063163467,-0.07236135,-0.059882246
8.133484688,-0.057910025,-0.045762531,-0.070825458
8.14348,-0.051434852,-0.01282817,-0.077283181
8.15348,-0.044785149,0.01675516,-0.073967054
8.16348,-0.040945426,0.046303585,-0.062936574
8.173481563,-0.048712138,0.060283672,-0.044034656
8.183481563,-0.063442715,0.053895768,-0.026720991
8.19348,-0.080512039,0.035988688,-0.01850049
8.20348,-0.093130767,0.013491395,-0.013561208
8.21348,-0.095434606,-0.003769911,-0.013788101
8.22348,-0.087650433,-0.013753194,-0.009634217
8.23348,-0.072989672,-0.004817109,0.002740167
8.243481563,-0.05136504,0.01654572,0.019809486
8.25348,-0.030176742,0.047350783,0.030822514
8.26348,-0.016039576,0.077824228,0.032148965
8.27348,-0.012479104,0.099012531,0.02586578
8.28348,-0.023038346,0.108856186,0.014189526
8.293483125,-0.043650683,0.102712624,0.002234021
8.30348,-0.068434358,0.096603975,-0.003996804
8.313481563,-0.084316857,0.102293745,-0.003665191
8.32348,-0.084857911,0.128822759,-0.000296706
8.33348,-0.068905599,0.170431405,-0.005288348
8.34348,-0.090931654,0.259460658,-0.02607522
8.35348,-0.222180411,0.273458183,-0.020193459
8.36348,-0.316515446,0.151424766,-0.013473942
8.37348,-0.353935331,0.099064887,-0.029705504
8.383481563,-0.323531687,0.066427231,-0.05042256
8.393484688,-0.21731095,0.049567349,-0.085660763
8.403487813,-0.06075491,0.070354223,-0.140586272
8.41348,0.083426736,0.095452055,-0.19764109
8.42348,0.158266455,0.102258839,-0.231936797
8.43348,0.134425253,0.0543321,-0.229563162
8.443478438,0.033353243,-0.031381018,-0.18465583
