Time (s),Acceleration x (m/s^2),Acceleration y (m/s^2),Acceleration z (m/s^2),Gyroscope x (rad/s),Gyroscope y (rad/s),Gyroscope z (rad/s)
0.0,-0.08762778342,0.1110239178,9.26723671,-0.07386233658,0.161565125,0.0001047197584
0.002,-0.08884403855,0.09245449305,9.275252342,-0.0743335709,0.1654921174,0.00150098314
0.004,-0.1017535701,0.08539638668,9.278260231,-0.07389724255,0.1686686128,0.003333578818
0.006,-0.1256093979,0.07329130918,9.294109344,-0.07309439033,0.1705884784,0.005986479111
0.008,-0.1526447237,0.06400179863,9.289847374,-0.07276277989,0.1716880351,0.008953538723
0.01,-0.176902771,0.05157110468,9.273385048,-0.07293730974,0.1724385321,0.01141445339
0.012,-0.1916989386,0.05277778208,9.259996414,-0.07332128286,0.1733810008,0.01464331243
0.014,-0.2034592628,0.04729985073,9.249950409,-0.07316420227,0.1744107455,0.01815142483
0.016,-0.2181979716,0.01755428687,9.234168053,-0.07374016196,0.1744980216,0.02148500271
0.018,-0.2442755997,-0.02561795898,9.227214813,-0.07490953058,0.1754928529,0.02567379363
0.02,-0.2671833336,-0.06319735199,9.221297264,-0.07571238279,0.1777792424,0.03022910282
0.022,-0.292427808,-0.1016961113,9.22472477,-0.07730063051,0.1793500334,0.03490658477
0.024,-0.3213689029,-0.1481436342,9.238631248,-0.07951720059,0.1793500334,0.03871140257
0.026,-0.355653882,-0.190482676,9.259881973,-0.08136724681,0.1796641946,0.04279547185
0.028,-0.3769622743,-0.2203048766,9.276544571,-0.08244935423,0.180746302,0.04824090004
0.03,-0.3942962885,-0.2470050007,9.285699844,-0.08288568258,0.1818109453,0.05393067375
0.032,-0.3956657648,-0.2401671559,9.304203033,-0.08306021988,0.1828756034,0.05907939374
0.034,-0.3957615495,-0.229498595,9.313290596,-0.08250171691,0.1845860183,0.06401867419
0.036,-0.391538173,-0.2212433964,9.308771133,-0.08227481693,0.1877974272,0.07140141726
0.038,-0.3879085779,-0.2043786347,9.311510086,-0.08217009902,0.1913229972,0.07976154983
0.04,-0.3686974645,-0.177525267,9.316596031,-0.08182103187,0.1940107942,0.08632398397
0.042,-0.3448799849,-0.1675558239,9.311969757,-0.08199556917,0.1973094642,0.09311331809
0.044,-0.3235236704,-0.1680155098,9.316049576,-0.08175121993,0.2011841089,0.101229094
0.046,-0.303278327,-0.1531235725,9.309345245,-0.08101818711,0.2068738788,0.1105317026
0.048,-0.2861071229,-0.1525776833,9.307937622,-0.08040732145,0.2135933936,0.1200088412
0.05,-0.2666182816,-0.1492641121,9.306577682,-0.07951720059,0.2182359695,0.1273217648
0.052,-0.2372845411,-0.1574522853,9.292250633,-0.07885397226,0.2226341963,0.1340936422
0.054,-0.226951167,-0.1614458114,9.289588928,-0.07794640213,0.2275909334,0.1418952644
0.056,-0.2030187249,-0.1657266319,9.29932785,-0.07630579174,0.2337170392,0.1517040133
0.058,-0.1782530993,-0.1747958809,9.3090868,-0.07438593358,0.2409427017,0.1623330712
0.06,-0.1667034775,-0.1871978492,9.31760025,-0.07202973962,0.2467197478,0.1704488546
0.062,-0.1550485045,-0.2234939486,9.329341888,-0.07010987401,0.251606673,0.1781632155
0.064,-0.1368334144,-0.2426475585,9.332109451,-0.06806784123,0.2561096251,0.1882512122
0.066,-0.1286165118,-0.2594548762,9.333871841,-0.06565928459,0.2607870996,0.2008699477
0.068,-0.1551730037,-0.2914126515,9.373204231,-0.06342526525,0.2642602921,0.2145358771
0.07,-0.1567052901,-0.3325641751,9.39663887,-0.06124360487,0.2653773129,0.2260899544
0.072,-0.1480861604,-0.3620990515,9.4106493,-0.05909684673,0.2670877278,0.2368062735
0.074,-0.1418133527,-0.3945835829,9.427073479,-0.05728170648,0.2696708143,0.2484127134
0.076,-0.135301128,-0.4181425571,9.432321548,-0.05558873713,0.2713637948,0.2616597712
0.078,-0.1314608306,-0.4570913911,9.43530941,-0.05396557972,0.2717303038,0.2749591768
0.08,-0.1411334127,-0.4735634923,9.432177544,-0.05234242231,0.2715557814,0.2847853601
0.082,-0.150566563,-0.4824986756,9.428883553,-0.05042256042,0.2705434859,0.2941403389
0.084,-0.1742308438,-0.4916541278,9.415016174,-0.04932300374,0.2682396472,0.3048915565
0.086,-0.1978089511,-0.512838006,9.398284912,-0.04857251421,0.26350981,0.3162187636
0.088,-0.2064089179,-0.5133168101,9.385941505,-0.04700171575,0.2562317848,0.3271445036
0.09,-0.2120496482,-0.5207579732,9.374285698,-0.04541346803,0.2478891164,0.3369532526
0.092,-0.2364705205,-0.5365788937,9.355601311,-0.04413937777,0.2407158166,0.3447374403
0.094,-0.2525116503,-0.5520837307,9.34010601,-0.04234168679,0.2317971736,0.3516838551
0.096,-0.2614947259,-0.5691304803,9.325875282,-0.04003785178,0.2196322381,0.3592585623
0.098,-0.2608434856,-0.5804311037,9.311280251,-0.03783873841,0.2074323744,0.3664493263
0.1,-0.2715216279,-0.5929288268,9.303800583,-0.03632030264,0.1945693046,0.3728372455
0.102,-0.2814432085,-0.5912624598,9.297374725,-0.035691984,0.1830326766,0.3776543438
0.104,-0.2884055376,-0.5992782712,9.291609764,-0.03481931984,0.1717054844,0.3830823302
0.106,-0.280849427,-0.6163920164,9.290690422,-0.03413863853,0.1579348445,0.3894004226
0.108,-0.2820465267,-0.6073132157,9.283660889,-0.03417354822,0.1400103122,0.3960675597
0.11,-0.2843545675,-0.6038272977,9.269410133,-0.03419100121,0.1226268336,0.4019493163
0.112,-0.2861454189,-0.624551475,9.271508217,-0.03324852139,0.1089259982,0.4065395296
0.114,-0.2790106833,-0.6289567947,9.24306488,-0.03192207217,0.09482374042,0.412194401
0.116,-0.2698935568,-0.6357371807,9.204546928,-0.031066861,0.07991862297,0.4186172187
0.118,-0.2563232481,-0.6258060336,9.17972374,-0.03008947708,0.06187192351,0.4256334305
0.12,-0.1569925994,-0.6116802096,9.105569839,-0.0284314137,0.04251622036,0.433539778
0.122,-0.1553262323,-0.5962136984,9.006996155,-0.02649409883,0.02707005665,0.4405560195
0.124,-0.2793267071,-0.6089603901,9.061067581,-0.02474876866,0.01352630183,0.4468741119
0.126,-0.2935674489,-0.625451684,9.08310318,-0.02340486459,-0.001762782573,0.4545011818
0.128,-0.2556816041,-0.6477464437,9.00753212,-0.02317797206,-0.0196698606,0.4651826024
0.13,-0.2363843173,-0.6703572869,8.970317841,-0.02340486459,-0.03548254445,0.4755324125
0.132,-0.2785414159,-0.7086645365,8.999123573,-0.02317797206,-0.04853760451,0.4844684899
0.134,-0.2904645503,-0.7325491309,8.987460136,-0.02277654596,-0.06269222498,0.4950626493
0.136,-0.2879075408,-0.7518751025,8.954228401,-0.02260201424,-0.07730063051,0.5063025355
0.138,-0.2855899632,-0.7685291767,8.944545746,-0.02286381274,-0.09396852553,0.5194099545
0.14,-0.2745766342,-0.7820132971,8.937602997,-0.02357939817,-0.1092750654,0.5316970944
0.142,-0.2594548762,-0.7963306308,8.921445847,-0.02483603545,-0.1215098202,0.5426926613
0.144,-0.2314043939,-0.803743124,8.907148361,-0.02691297606,-0.1340587437,0.5550495982
0.146,-0.2064567953,-0.8272541761,8.87816906,-0.02933898382,-0.1470614374,0.5673367381
0.148,-0.1818827242,-0.864076972,8.844076157,-0.03286454827,-0.1615127623,0.5815088153
0.15,-0.143565923,-0.9024128914,8.826262474,-0.03649483621,-0.1740267724,0.5948430896
0.152,-0.1036018953,-0.9318520427,8.818879128,-0.03892084211,-0.1841671467,0.6056292653
0.154,-0.06260358542,-0.9722086787,8.818945885,-0.04211479425,-0.1942900568,0.616973877
0.156,-0.02496673539,-1.03068471,8.812797546,-0.04658283666,-0.2040813416,0.6285279393
0.158,-0.0006703764666,-1.087810278,8.808709145,-0.0515570268,-0.2156528831,0.6411292553
0.16,0.01958457008,-1.141181827,8.806572914,-0.05546656251,-0.2263692021,0.6519328356
0.162,0.05063257739,-1.194275618,8.798796654,-0.05832890421,-0.2360906899,0.6598042846
0.164,0.08466854692,-1.242150187,8.803297997,-0.06201154739,-0.2479414791,0.6674313545
0.166,0.1142321527,-1.276205301,8.795474052,-0.06635741889,-0.2612757981,0.6743254066
0.168,0.1512752324,-1.314502954,8.786471367,-0.07127925009,-0.278711617,0.6812369227
0.17,0.1814613342,-1.332344532,8.777785301,-0.07613126189,-0.2962172925,0.6875200868
0.172,0.2185235769,-1.357857227,8.76641655,-0.08093091846,-0.311227113,0.6932273507
0.174,0.2584588528,-1.372643709,8.755518913,-0.08606218547,-0.328087002,0.6993534565
0.176,0.2934142053,-1.368314981,8.733185768,-0.09161233157,-0.3450341523,0.7049908638
0.178,0.3256018758,-1.376522303,8.706907272,-0.0976511687,-0.3629935682,0.7113962173
0.18,0.3295187652,-1.398271203,8.685684204,-0.1023286507,-0.3791378736,0.7174699306
0.182,0.3397276402,-1.415442467,8.658065796,-0.105801858,-0.3920184076,0.7221474051
0.184,0.317576468,-1.443310976,8.626394272,-0.1088038236,-0.4061032236,0.7265805602
0.186,0.3053277731,-1.460281134,8.590912819,-0.1112821922,-0.4200309217,0.7302806377
0.188,0.2770474553,-1.493349791,8.56010437,-0.1132369637,-0.4336096048,0.733684063
0.19,0.2313469201,-1.536636949,8.531115532,-0.114039816,-0.4447971582,0.7369652987
0.192,0.210402444,-1.578774929,8.50137043,-0.1134114936,-0.4537855983,0.738920033
0.194,0.1859815866,-1.620673418,8.472667694,-0.1109505817,-0.463437289,0.7409795523
0.196,0.143125385,-1.667053938,8.44758606,-0.1077391729,-0.4717799425,0.7430914044
0.198,0.1033145934,-1.700505733,8.431727409,-0.1042310596,-0.4786565602,0.7445749044
0.2,0.06296750903,-1.740795255,8.404577255,-0.1008974835,-0.4852364361,0.7473849058
0.202,0.02612552792,-1.778853536,8.379476547,-0.09796532989,-0.4917116165,0.7510675192
0.204,0.006330269389,-1.827187777,8.358598709,-0.09393361956,-0.4971745014,0.7544534802
0.206,-0.01236365829,-1.87057066,8.330874443,-0.08944812417,-0.501625061,0.7593054771
0.208,-0.03461058065,-1.910850763,8.298800468,-0.08384561539,-0.5062676668,0.76537925
0.21,-0.04832456633,-1.958102703,8.255820274,-0.07840018719,-0.5100550056,0.7703709006
0.212,-0.07352115214,-2.017047882,8.212236404,-0.07492698729,-0.511590898,0.7749436498
0.214,-0.08409394324,-2.07238245,8.163624763,-0.07129669935,-0.5131617188,0.7796385884
0.216,-0.09760680795,-2.122287273,8.110990524,-0.06665412337,-0.5153782964,0.7834433913
0.218,-0.1069825068,-2.159196615,8.044766426,-0.06162757427,-0.5172283053,0.7865675092
0.22,-0.1056417525,-2.183052301,7.963536263,-0.05703736097,-0.5189387202,0.7897265553
0.222,-0.09072109312,-2.235389471,7.886548519,-0.05359905958,-0.5208935142,0.7922922373
0.224,-0.0910371244,-2.313766003,7.810307026,-0.04967207089,-0.523581326,0.7942644358
0.226,-0.08984959871,-2.365049839,7.724068165,-0.04461061582,-0.5271941423,0.7960272431
0.228,-0.07633672655,-2.417540312,7.645576477,-0.0400203988,-0.5321508646,0.7979994416
0.23,-0.06951804459,-2.46378684,7.565466881,-0.03687880561,-0.5370029211,0.8007047176
0.232,-0.05010585487,-2.49891448,7.486055851,-0.03466223925,-0.5424483418,0.804317534
0.234,-0.04118984565,-2.536905766,7.410245419,-0.03281218931,-0.5490806103,0.8089600801
0.236,-0.02517742477,-2.566910028,7.339511871,-0.03111921996,-0.5558873415,0.8146324158
0.238,-0.008896853775,-2.605082989,7.264640331,-0.02979277074,-0.5621356368,0.8213519454
0.24,0.01265096199,-2.644443512,7.191588402,-0.02925171889,-0.5678254366,0.828507781
0.242,0.02714067139,-2.692059517,7.14258337,-0.02839650773,-0.5736199021,0.8358556032
0.244,0.04684016109,-2.757009506,7.095609188,-0.02804744057,-0.5785068274,0.843569994
0.246,0.06396349519,-2.827379942,7.051508427,-0.02853613347,-0.5826956034,0.851441443
0.248,0.07317638397,-2.910085201,7.008105755,-0.02874557301,-0.587250948,0.859382689
0.25,0.08124962449,-2.991133451,6.974635124,-0.02818706818,-0.5913000703,0.8670446873
0.252,0.0786447376,-3.076022387,6.94395113,-0.02797762863,-0.5939006209,0.8742528558
0.254,0.06467217207,-3.147245169,6.914157867,-0.02755874954,-0.5955936313,0.8816181421
0.256,0.06079356745,-3.205424309,6.897695541,-0.02677335031,-0.596920073,0.8890183568
0.258,0.05428134277,-3.246623755,6.887084007,-0.02707005665,-0.5974436402,0.8970992565
0.26,0.04185064882,-3.276551247,6.880638599,-0.02783800103,-0.597356379,0.9047961235
0.262,0.0224767644,-3.3106637,6.870343685,-0.02813470736,-0.5973215103,0.9117251039
0.264,-0.0007661445416,-3.355598211,6.858832359,-0.02731440216,-0.5969898701,0.9189507365
0.266,-0.02819411829,-3.391549587,6.843662739,-0.0260403119,-0.5955936313,0.9253735542
0.268,-0.0427317135,-3.419753075,6.819701672,-0.0248883944,-0.5934468508,0.9305048585
0.27,-0.06268019974,-3.452515364,6.786977768,-0.02282890677,-0.5906717777,0.9357582927
0.272,-0.08348102868,-3.488361597,6.751102924,-0.01916371472,-0.5870240331,0.9391616583
0.274,-0.1119049937,-3.519677401,6.715592384,-0.0154636167,-0.5833239555,0.9402263165
0.276,-0.152271226,-3.549997807,6.672745705,-0.01268854365,-0.5799205303,0.9409767985
0.278,-0.1816528738,-3.597891331,6.615294456,-0.008709193207,-0.5763251781,0.9412909746
0.28,-0.2081997842,-3.63842988,6.549702644,-0.003630284918,-0.5723457932,0.9404532313
0.282,-0.2362023592,-3.664775848,6.482214928,0.0006283185212,-0.5678777695,0.9382366538
0.284,-0.2740115821,-3.683316469,6.406759262,0.003961897455,-0.5622752905,0.9370149374
0.286,-0.3039295375,-3.680481672,6.326438427,0.006876597181,-0.5562015176,0.9365087748
0.288,-0.3406278789,-3.666834831,6.238791466,0.009651671164,-0.5499532223,0.9353568554
0.29,-0.3871711493,-3.649558306,6.146011829,0.01204277202,-0.5426577926,0.9352172017
0.292,-0.4386656582,-3.648715496,6.068468094,0.01459095255,-0.534960866,0.9360898733
0.294,-0.4713799953,-3.634829044,5.999112606,0.01752310619,-0.5274210572,0.9370847344
0.296,-0.5115834475,-3.624179602,5.923964024,0.02061233856,-0.5186594725,0.9384286404
0.298,-0.5490191579,-3.587902784,5.841152668,0.02314306609,-0.5106833577,0.9396154284
0.3,-0.595562458,-3.545132875,5.757509232,0.02637192421,-0.5033180714,0.940418303
0.302,-0.6353732347,-3.496999741,5.675857544,0.0295833312,-0.4959178567,0.9416924119
0.304,-0.6618435383,-3.452525139,5.607230186,0.03120648675,-0.4897393882,0.9428268671
0.306,-0.683784008,-3.408241987,5.535451889,0.03281218931,-0.4824962616,0.9436122775
0.308,-0.7061458826,-3.363250017,5.458482742,0.0337895751,-0.4741710424,0.9442580342
0.31,-0.727253139,-3.327212572,5.402774811,0.03511602432,-0.4666835964,0.9445023537
0.312,-0.7581287622,-3.287669897,5.353674412,0.03787364438,-0.4604876637,0.9449212551
0.314,-0.7835935354,-3.24875927,5.305474281,0.03963642567,-0.4544837475,0.9460557103
0.316,-0.8101691008,-3.201957464,5.270288944,0.04066617042,-0.4482529163,0.9471378326
0.318,-0.8444253802,-3.192648888,5.23930788,0.04297000542,-0.441934824,0.9478883147
0.32,-0.8867644072,-3.191585779,5.211525917,0.0451865755,-0.4361926913,0.9478883147
0.322,-0.924975872,-3.19924736,5.18827343,0.04576253146,-0.4310265183,0.9469283819
0.324,-0.9508715868,-3.218601942,5.17209816,0.04598942399,-0.4251272976,0.9456019402
0.326,-0.9719022512,-3.24856782,5.144976616,0.04672246426,-0.4195771515,0.9444325566
0.328,-0.9966199994,-3.282287836,5.14121294,0.04670501128,-0.4157374203,0.9423730969
0.33,-1.009462476,-3.324531078,5.145694733,0.04543092102,-0.4132241607,0.938690424
0.332,-1.020293832,-3.378706932,5.144899845,0.0439648442,-0.4109377563,0.9349903464
0.334,-1.047597289,-3.438801527,5.150119781,0.04305727407,-0.4100127518,0.9312728047
0.336,-1.080512762,-3.511882067,5.168957233,0.0420624353,-0.4112170339,0.9269094467
0.338,-1.094313025,-3.57799077,5.186252594,0.04195771366,-0.4139048159,0.9216734767
0.34,-1.113629341,-3.650046587,5.203653812,0.04319689795,-0.4178492725,0.9173275828
0.342,-1.115267038,-3.707804441,5.202820778,0.04494222626,-0.4219857156,0.9146049023
0.344,-1.121022701,-3.773884296,5.205540657,0.04818854108,-0.4265061021,0.9112887383
0.346,-1.129938722,-3.832935095,5.217971325,0.05267403647,-0.4311835766,0.9083740711
0.348,-1.136106253,-3.884391069,5.231944084,0.05890486389,-0.4359308779,0.9071697593
0.35,-1.14000392,-3.937005997,5.252888203,0.06649704278,-0.4406956434,0.907012701
0.352,-1.139936924,-3.981509447,5.25860548,0.07274532318,-0.4448495209,0.9075711966
0.354,-1.127190232,-4.021540642,5.260856152,0.07908086479,-0.4490732253,0.9087405801
0.356,-1.097444534,-4.040732384,5.25792551,0.08702211827,-0.4530002177,0.911742568
0.358,-1.060918689,-4.058066845,5.249239445,0.09498082101,-0.4561766982,0.9158091545
0.36,-1.013513446,-4.053967953,5.247103691,0.1039169058,-0.4587248862,0.9206262827
0.362,-0.9777824283,-4.035771847,5.244862556,0.1129053459,-0.4604004025,0.9269967079
0.364,-0.9531795382,-4.004781246,5.243991375,0.120672062,-0.4607669115,0.9333846569
0.366,-0.9226869941,-3.959358454,5.254966259,0.1273043156,-0.4596499205,0.9400866628
0.368,-0.9048071504,-3.897022963,5.271984577,0.1325403005,-0.4576078653,0.9488133192
0.37,-0.9003539681,-3.825005293,5.295974255,0.1378111988,-0.4545710087,0.9586744308
0.372,-0.9122674465,-3.727044106,5.322080612,0.1434486061,-0.4501902163,0.9693209529
0.374,-0.9242576361,-3.622513533,5.354651451,0.147934109,-0.4442910254,0.9805957675
0.376,-0.9497415423,-3.496262312,5.382366657,0.1510407925,-0.4368559122,0.9924465418
0.378,-0.9796307087,-3.36547184,5.403521538,0.153554067,-0.4281292558,1.006112456
0.38,-1.024861932,-3.235399723,5.406107426,0.1552121341,-0.4192280769,1.020825624
0.382,-1.075628638,-3.116666555,5.393629074,0.1562069654,-0.4086513817,1.035329342
0.384,-1.116684437,-3.001668215,5.386005878,0.1572367102,-0.3964515328,1.049448967
0.386,-1.137839556,-2.90048933,5.371831894,0.157969743,-0.3839200735,1.063708305
0.388,-1.137351155,-2.804788113,5.361757278,0.1576381326,-0.3702890575,1.0780375
0.39,-1.143451571,-2.71975565,5.358749866,0.15655604,-0.3559075296,1.091459155
0.392,-1.140013576,-2.660331488,5.391387463,0.1551772207,-0.3402693868,1.103536725
0.394,-1.125590801,-2.621114492,5.448542595,0.1533446312,-0.3222226799,1.114776731
0.396,-1.108457923,-2.592077732,5.511461735,0.1510233432,-0.3016103506,1.125021815
0.398,-1.081010699,-2.582816839,5.590882301,0.1481784582,-0.2802824378,1.132666349
0.4,-1.050508618,-2.595170975,5.690720558,0.144495815,-0.258343637,1.137675405
0.402,-1.012182355,-2.619352579,5.795394897,0.1404815465,-0.2342755497,1.140345812
0.404,-0.9485444427,-2.668711185,5.895645142,0.1363102198,-0.2093173414,1.141741991
0.406,-0.8861323595,-2.720320702,5.997887135,0.1314756572,-0.1840100586,1.14231801
0.408,-0.8270434737,-2.78342247,6.090466022,0.1272868663,-0.1579173952,1.140659928
0.41,-0.7568166852,-2.868512154,6.179865837,0.1243197992,-0.1308996975,1.138094306
0.412,-0.68772012,-2.953966141,6.276371002,0.1208989546,-0.1037947312,1.134516358
0.414,-0.6226648092,-3.023886204,6.368107319,0.1160294861,-0.0782431066,1.129594564
0.416,-0.5669565201,-3.097723484,6.451396942,0.110898219,-0.05459389836,1.124114156
0.418,-0.5095818639,-3.178273916,6.528298378,0.1050164625,-0.03075270168,1.118092775
0.42,-0.4465090334,-3.248797655,6.619421959,0.09883799404,-0.01094321441,1.112490296
0.422,-0.3765504658,-3.31085515,6.696122646,0.0925373584,0.003403391922,1.1067307
0.424,-0.2714450061,-3.383141041,6.76889658,0.08524188399,0.01682497375,1.100604653
0.426,-0.173033759,-3.44031477,6.837984085,0.07721336931,0.02954842336,1.094321489
0.428,-0.05838021636,-3.456595182,6.886021137,0.06890559942,0.04136430472,1.087340117
0.43,0.05422388017,-3.465319633,6.949735165,0.06141813472,0.05122541264,1.08009696
0.432,0.1555464864,-3.458845615,7.011218548,0.05363396928,0.05934119597,1.07271421
0.434,0.2514869571,-3.436512709,7.050531387,0.04572762549,0.06548475474,1.064982414
0.436,0.3313288093,-3.40410471,7.088713646,0.03904301673,0.06923720986,1.05709362
0.438,0.3948900402,-3.361133575,7.129511356,0.03284709528,0.07077310234,1.050094843
0.44,0.4463557899,-3.32314229,7.151509285,0.02621484548,0.07014477998,1.044090867
0.442,0.4937418401,-3.310309649,7.175355434,0.0197396744,0.06735225767,1.039116621
0.444,0.5205760598,-3.315835238,7.207667351,0.0136310216,0.06211626902,1.035835505
0.446,0.5546120405,-3.333159685,7.241837978,0.00703367684,0.05525712296,1.033863187
0.448,0.5696954727,-3.360127926,7.270893574,-5.235987919e-05,0.04677482322,1.034020305
0.45,0.5860526562,-3.40236187,7.309009075,-0.00736528961,0.03637266159,1.036289215
0.452,0.6299240589,-3.46513772,7.348264694,-0.01507964451,0.02583087236,1.039413333
0.454,0.6865612864,-3.516593933,7.39810276,-0.02326523885,0.01490511186,1.043532372
0.456,0.7213634253,-3.551616192,7.441198349,-0.0313286595,0.002583087189,1.048366904
0.458,0.7573434711,-3.567667007,7.470751762,-0.03808308393,-0.01094321441,1.053498149
0.46,0.8066735864,-3.568873882,7.514555931,-0.04494222626,-0.02562143281,1.059362531
0.462,0.8599589467,-3.549193382,7.556531906,-0.05309291556,-0.04105014354,1.066483378
0.464,0.8997026682,-3.520156384,7.606445789,-0.06082472578,-0.0561821498,1.074442148
0.466,0.9373203516,-3.499240637,7.670773506,-0.06808529049,-0.07086037099,1.083360791
0.468,0.9487455487,-3.453387022,7.746611595,-0.07513642311,-0.0853466019,1.092977524
0.47,0.9717298746,-3.417397261,7.829824924,-0.08337438107,-0.09915215522,1.103222609
0.472,0.9868707657,-3.381359816,7.922145367,-0.09367182106,-0.1117010713,1.113694549
0.474,1.008849502,-3.327758312,7.999314785,-0.1038645431,-0.1218588874,1.123957157
0.476,1.036679864,-3.269608259,8.085094452,-0.1130624264,-0.1297826767,1.133189917
0.478,1.069355845,-3.207895041,8.172521591,-0.1218588874,-0.1358564347,1.140729785
0.48,1.095261097,-3.15107584,8.262399673,-0.1311265826,-0.1395914257,1.147903085
0.482,1.129354477,-3.079067945,8.342567444,-0.1408829838,-0.1417381912,1.154290915
0.484,1.177679062,-2.997262716,8.431957245,-0.1495921761,-0.1422966868,1.158793926
0.486,1.217700601,-2.914844751,8.51160717,-0.1575683206,-0.1409527957,1.161254764
0.488,1.249773264,-2.834744453,8.580186844,-0.1648987085,-0.138195172,1.162249684
0.49,1.294142604,-2.759566307,8.651456833,-0.1700997949,-0.1342158169,1.162651062
0.492,1.35317409,-2.675587416,8.712394714,-0.1741140485,-0.1294510663,1.161883116
0.494,1.40969646,-2.606538534,8.766972542,-0.1776396036,-0.1230980754,1.15872407
0.496,1.451805711,-2.54260397,8.81389904,-0.1793849468,-0.1154535264,1.153959394
0.498,1.495121479,-2.492383003,8.864819527,-0.1801005304,-0.1069712266,1.148234606
0.5,1.53184855,-2.443053007,8.909160614,-0.1803972274,-0.09752900153,1.140537739
0.502,1.577510715,-2.403184891,8.965997696,-0.1783028394,-0.08831366152,1.130781412
0.504,1.616957664,-2.374492645,9.018718719,-0.1746027321,-0.07951720059,1.119541407
0.506,1.650189161,-2.357091665,9.067081451,-0.1709026396,-0.06993534416,1.108022213
0.508,1.677090406,-2.352580786,9.100800514,-0.1655968428,-0.060353484,1.096398354
0.51,1.6976614,-2.353452444,9.146482468,-0.1587027907,-0.0514173992,1.083779693
0.512,1.712850213,-2.368028402,9.177799225,-0.1524370611,-0.04303981736,1.071056247
0.514,1.748016238,-2.406076908,9.197306633,-0.1470439881,-0.03520328924,1.059257746
0.516,1.787520528,-2.441491842,9.219438553,-0.1404117346,-0.02759365551,1.048140049
0.518,1.835452557,-2.481628418,9.228785515,-0.1329940856,-0.02103121765,1.036359072
0.52,1.882196903,-2.521812677,9.243879318,-0.1252273768,-0.01520181727,1.023024678
0.522,1.926719427,-2.553789616,9.248063087,-0.1170243248,-0.01061160211,1.009411216
0.524,1.973952293,-2.589865446,9.247011185,-0.1086292937,-0.006544984877,0.996286273
0.526,2.033558369,-2.625500679,9.250860214,-0.1001644433,-0.002984513063,0.9830392599
0.528,2.074930191,-2.652440071,9.258013725,-0.09231046587,-0.001535889693,0.9697747231
0.53,2.115966797,-2.658013821,9.240976334,-0.08468337357,-0.001588249579,0.9577319622
0.532,2.159904957,-2.651118755,9.222331047,-0.07747516781,-0.002234021435,0.9462127686
0.534,2.193730354,-2.634732723,9.203186989,-0.07106980681,-0.003124139272,0.9342572689
0.536,2.229250669,-2.616077185,9.170367241,-0.06625270098,-0.004118977115,0.9230871797
0.538,2.23356986,-2.580145121,9.152199745,-0.06208136305,-0.005794493016,0.9138020277
0.54,2.220037937,-2.528238773,9.14572525,-0.05817182362,-0.008360126987,0.9065414667
0.542,2.184718609,-2.46196723,9.140420914,-0.05469861999,-0.01193805225,0.8998044729
0.544,2.164722204,-2.391836166,9.144049644,-0.05106833205,-0.01591740362,0.8932769895
0.546,2.143423319,-2.314647198,9.152851105,-0.04769985005,-0.01942551509,0.8880933523
0.548,2.123800516,-2.243759632,9.172416687,-0.04506440088,-0.02401573025,0.8837649226
0.55,2.093547344,-2.153134346,9.205102921,-0.04272565991,-0.03029891662,0.8794888854
0.552,2.069404364,-2.064012527,9.254853249,-0.04082325101,-0.03696607426,0.8764868975
0.554,2.056600094,-1.986775637,9.290958405,-0.03974114731,-0.04379031062,0.8746193647
0.556,2.046477318,-1.896983504,9.334868431,-0.03899065405,-0.05098106712,0.872926414
0.558,2.019777298,-1.818128109,9.392319679,-0.03930481523,-0.05864306167,0.8722282648
0.56,1.994274259,-1.753733635,9.456981659,-0.04101523757,-0.06712536514,0.8725773692
0.562,1.975752711,-1.681773424,9.522947311,-0.04359832406,-0.07593927532,0.8727169633
0.564,1.937311411,-1.608616233,9.580703735,-0.04686209187,-0.08520697057,0.8731009364
0.566,1.913599253,-1.531886816,9.65397644,-0.05071926862,-0.09594074637,0.874514699
0.568,1.881459475,-1.451029897,9.718763351,-0.05576327071,-0.106290549,0.8763472438
0.57,1.861175776,-1.372308493,9.7889328,-0.06192428246,-0.1152440906,0.8780402541
0.572,1.856751323,-1.293433905,9.86372757,-0.06883578748,-0.1248783097,0.8787383437
0.574,1.879649401,-1.214971185,9.94815731,-0.07576474547,-0.135123387,0.8783892989
0.576,1.903218031,-1.138529062,10.02542305,-0.08079128712,-0.1455953717,0.877289772
0.578,1.944915414,-1.04721427,10.08426285,-0.08379326016,-0.1580744684,0.8759109378
0.58,1.970657825,-1.002710819,10.11122131,-0.08658578247,-0.1722989082,0.8740783334
0.582,2.017249107,-0.9266039133,10.16397953,-0.09056513757,-0.1872563809,0.8717570305
0.584,2.073579788,-0.7924616337,10.22367191,-0.09438740462,-0.20343557,0.8685979843
0.586,2.105183363,-0.7177720666,10.24565983,-0.09752900153,-0.2194925994,0.8641648889
0.588,2.119107962,-0.6826347709,10.25119591,-0.100705497,-0.2348689586,0.8588765264
0.59,2.143241405,-0.6367523074,10.26680565,-0.1051386371,-0.2493377328,0.8529424071
0.592,2.174797058,-0.5924500227,10.28423595,-0.1097986624,-0.2624800801,0.8464148641
0.594,2.228015423,-0.532815218,10.29579449,-0.1135860309,-0.2760412693,0.8387179971
0.596,2.27184844,-0.5083656311,10.32746601,-0.117338486,-0.289131254,0.830532372
0.598,2.279615164,-0.4895567894,10.34571838,-0.1194852367,-0.3007725775,0.8215264678
0.6,2.306928158,-0.435007304,10.38115311,-0.1200611964,-0.3108780384,0.8099549413
0.602,2.343224287,-0.3927544355,10.42218971,-0.1199739352,-0.3194127083,0.7973536849
0.604,2.38451004,-0.2930311263,10.47217083,-0.118350774,-0.3276157379,0.7843509912
0.606,2.430890322,-0.2300444841,10.50594807,-0.1148601174,-0.3356966376,0.7695680261
0.608,2.479109526,-0.1496280432,10.54033852,-0.1096415818,-0.3433935344,0.7540869713
0.61,2.515683651,-0.09159258008,10.55608273,-0.1015258059,-0.3506366313,0.7380124927
0.612,2.59292984,0.02593399212,10.59884357,-0.09096655995,-0.3561169803,0.7210478783
0.614,2.686083555,0.2066483349,10.65332603,-0.08004079759,-0.3596076369,0.7037167549
0.616,2.732741594,0.3257933855,10.68855,-0.06958627701,-0.3626095951,0.6859318614
0.618,2.75460577,0.3856963217,10.70403481,-0.05996951461,-0.3657162786,0.6689149141
0.62,2.781353712,0.4939908385,10.72040272,-0.05099852011,-0.3691895008,0.6521946192
0.622,2.779026508,0.5904963613,10.72762299,-0.04419173673,-0.3721914589,0.6349856853
0.624,2.755084515,0.7107714415,10.71638012,-0.03827507049,-0.3740414977,0.6175498366
0.626,2.710044622,0.7703966498,10.69778156,-0.03207915276,-0.3741636872,0.600358367
0.628,2.684771538,0.8061276674,10.68001652,-0.02638937905,-0.37137115,0.5838999152
0.63,2.622560501,0.8901737928,10.6372757,-0.0212406572,-0.3680201173,0.5667782426
0.632,2.534980774,0.9577668309,10.59890175,-0.01630137488,-0.3647738099,0.5487664342
0.634,2.401355505,1.089246869,10.5125761,-0.01113520097,-0.3612307906,0.5307022929
0.636,2.306238651,1.187303782,10.44456196,-0.006510077976,-0.356326431,0.5126032233
0.638,2.216187954,1.286011934,10.36125278,-0.001151917269,-0.3502177596,0.4948357344
0.64,2.121645689,1.399755597,10.27809811,0.00448549632,-0.3445803523,0.4771730304
0.642,2.07569623,1.46635282,10.2396841,0.008988445625,-0.3375466764,0.4589517713
0.644,1.999254107,1.612447023,10.16179657,0.01178097259,-0.3290120065,0.4408003688
0.646,1.887464166,1.837722182,10.04086971,0.01480039209,-0.3204773664,0.4239404798
0.648,1.811117768,1.999129653,9.978764534,0.01855284907,-0.3116459846,0.4079183638
0.65,1.769784331,2.079287529,9.946136475,0.02071705833,-0.3017325103,0.3922452927
0.652,1.686935425,2.229701042,9.881742477,0.02192133479,-0.2910685539,0.3770260215
0.654,1.597928524,2.340217352,9.825028419,0.02209586836,-0.2797762752,0.3623129129
0.656,1.467348814,2.466813087,9.720669746,0.02151990868,-0.2685538232,0.3481059074
0.658,1.370699644,2.546635628,9.647512436,0.02035053819,-0.2586228848,0.3334975243
0.66,1.315546751,2.587892532,9.614472389,0.01734857261,-0.2495297194,0.3190287352
0.662,1.211083055,2.642805815,9.536067009,0.01233947743,-0.2395115346,0.3055547774
0.664,1.124738574,2.676267385,9.445537567,0.006824237294,-0.2294409871,0.2928138971
0.666,0.992655158,2.735040188,9.348313332,0.002059488557,-0.2199812979,0.2806838453
0.668,0.8925871253,2.759183407,9.281659126,-0.003979350906,-0.2107659578,0.2694439292
0.67,0.845900178,2.776211023,9.25106144,-0.01085594762,-0.2032261342,0.2582214475
0.672,0.7743997574,2.813378334,9.210599899,-0.0174358394,-0.1979377866,0.2467197478
0.674,0.7132805586,2.845479965,9.184531212,-0.02516764775,-0.1951627135,0.2354100049
0.676,0.6865420938,2.870954275,9.143445969,-0.03274237737,-0.1946565658,0.2241700888
0.678,0.6419525146,2.881249189,9.125576019,-0.03928736225,-0.195721224,0.2120226026
0.68,0.5970085263,2.886076212,9.125537872,-0.04605923966,-0.1992991418,0.1988802701
0.682,0.5674641132,2.918416977,9.123057365,-0.05260422453,-0.204866752,0.1862615347
0.684,0.5476975441,2.936038256,9.138054848,-0.05873033032,-0.2109230459,0.1744980216
0.686,0.5502163172,2.96919322,9.15940094,-0.06503096968,-0.2174854726,0.1624552459
0.688,0.5829880834,3.016550541,9.210455894,-0.07136651129,-0.2258456051,0.1499761492
0.69,0.6274819374,3.063591719,9.247278214,-0.07710864395,-0.2358812541,0.1376366615
0.692,0.6508302093,3.089822769,9.270129204,-0.08197811246,-0.2459518015,0.1247212291
0.694,0.7025162578,3.131213665,9.312075615,-0.08616690338,-0.2566855848,0.110933125
0.696,0.8052753806,3.206333876,9.390107155,-0.08944812417,-0.2692519426,0.09744173288
0.698,0.8773217201,3.255185366,9.449129105,-0.09171704948,-0.2829004228,0.08405505866
0.7,0.9158396125,3.282364368,9.483001709,-0.09297368675,-0.2976135314,0.06976080686
0.702,0.9982672334,3.332987309,9.551044464,-0.09285151958,-0.3143337965,0.05543165654
0.704,1.071884155,3.390859842,9.622123718,-0.09217083454,-0.3340734839,0.04106759652
0.706,1.204714298,3.475509167,9.719654083,-0.09061749279,-0.3563089669,0.02638937905
0.708,1.293807507,3.542575598,9.778082848,-0.08810421824,-0.3795742095,0.01188569237
0.71,1.334585428,3.575184822,9.805606842,-0.08518952131,-0.4035550356,-0.002827433404
0.712,1.407273412,3.637405157,9.873659134,-0.08019787818,-0.4275183976,-0.01797689125
0.714,1.479798555,3.706501961,9.931186676,-0.07250097394,-0.4508534372,-0.03298672289
0.716,1.538284183,3.792760372,9.969474792,-0.06368706375,-0.4742408693,-0.04857251421
0.718,1.585804343,3.89145875,10.0108366,-0.0553618446,-0.4989023507,-0.06342526525
0.72,1.629665971,3.981442451,10.04856014,-0.04754276946,-0.5234766006,-0.07642796636
0.722,1.629168034,4.050318718,10.08395576,-0.03963642567,-0.5470385551,-0.08991936594
0.724,1.618863344,4.124797821,10.11127949,-0.03230604529,-0.5692566037,-0.1045626774
0.726,1.600839853,4.215729713,10.13943481,-0.02555162087,-0.5899736285,-0.1190489084
0.728,1.581197858,4.247591496,10.13750935,-0.01804670505,-0.6100972891,-0.1325228512
0.73,1.51599896,4.35140419,10.11204529,-0.01153662615,-0.6283883452,-0.1458920687
0.732,1.476475477,4.431686401,10.10157681,-0.005724680144,-0.6440265179,-0.1601863205
0.734,1.465452552,4.47303915,10.09568787,0.0007330382941,-0.6570292115,-0.1751437932
0.736,1.43182838,4.601512432,10.06950474,0.006841690745,-0.6676931381,-0.1910262853
0.738,1.416735411,4.635854721,10.05424881,0.0124791041,-0.6767688394,-0.2066469789
0.74,1.384873271,4.698831558,10.02450275,0.01792453043,-0.6839247346,-0.220888868
0.742,1.364704609,4.770188332,9.991761208,0.02267182618,-0.6890559793,-0.233629778
0.744,1.356621742,4.848488331,9.94707489,0.02649409883,-0.692407012,-0.2454456538
0.746,1.346987486,4.918782234,9.873716354,0.02932153083,-0.693454206,-0.2572091818
0.748,1.328398943,4.968791962,9.803106308,0.03078760765,-0.6926164627,-0.2692519426
0.75,1.307588458,5.009292603,9.733847618,0.03138101846,-0.6906965971,-0.2801427841
0.752,1.264550328,5.033473969,9.654474258,0.03131120652,-0.6854954958,-0.2902657092
0.754,1.231462359,5.027153492,9.572995186,0.03064798191,-0.6764372587,-0.3007027805
0.756,1.196650743,5.007511139,9.491218567,0.02848377265,-0.6658082008,-0.3109478652
0.758,1.148306966,4.998710155,9.418569565,0.0257086996,-0.6532767415,-0.3211056888
0.76,1.101926565,4.982132912,9.344157219,0.02363175713,-0.6377432942,-0.3309318721
0.762,1.046017051,4.955307961,9.286783218,0.02089159191,-0.6200631261,-0.3402868509
0.764,0.9885849953,4.924805641,9.231093407,0.01755801216,-0.6021385789,-0.3497814238
0.766,0.9510630965,4.910737514,9.171199799,0.01495747175,-0.5850518346,-0.3599567115
0.768,0.8830007315,4.905843735,9.110262871,0.01167625282,-0.5686282516,-0.3704112172
0.77,0.8189989328,4.898115158,9.044212341,0.007819075137,-0.5534264445,-0.3816162348
0.772,0.7787380219,4.897406578,8.97834301,0.004345869645,-0.5396558046,-0.394374609
0.774,0.7434762716,4.902501583,8.922270775,0.001361356815,-0.5267927051,-0.4080928862
0.776,0.708281517,4.908410072,8.840167999,-0.0007853981806,-0.5149419308,-0.422526747
0.778,0.681935668,4.912413597,8.758592606,-0.001972222002,-0.5056917071,-0.4375540316
0.78,0.655618608,4.909348965,8.679384232,-0.001832595677,-0.4993910491,-0.4528082311
0.782,0.6463578343,4.9008255,8.592445374,-0.0008203047328,-0.4949404597,-0.4681845605
0.784,0.6359861493,4.909875393,8.515954971,0.0005061454722,-0.493771106,-0.4835958183
0.786,0.6334674954,4.944553375,8.439887047,0.002967059612,-0.4948531985,-0.4996528625
0.788,0.6322607994,4.987246513,8.377015114,0.007435102481,-0.4981518686,-0.5166000128
0.79,0.6310349703,5.034929752,8.331266403,0.01240929123,-0.5042256117,-0.5332853794
0.792,0.629483521,5.069224358,8.318798065,0.01790707745,-0.5126904845,-0.5492376685
0.794,0.6331610084,5.103806019,8.311336517,0.02487094142,-0.5249775648,-0.5658183098
0.796,0.6477943659,5.159408569,8.311824799,0.03307398781,-0.5413312912,-0.5836206675
0.798,0.6370587945,5.227270126,8.317216873,0.04115486518,-0.5609488487,-0.6009691954
0.8,0.6421536207,5.302332878,8.332215309,0.04853760451,-0.5834460855,-0.6178116202
0.802,0.6566337347,5.378650665,8.352431297,0.05597271025,-0.6093293428,-0.6357187033
0.804,0.6827688813,5.456816196,8.350362778,0.06340780854,-0.6375338435,-0.6537479758
0.806,0.7217273116,5.539856911,8.363740921,0.07054620981,-0.6670124531,-0.6711838245
0.808,0.7636928558,5.620944023,8.389349937,0.07754497975,-0.6985855103,-0.6883752942
0.81,0.8421173692,5.680367947,8.424563408,0.0848230049,-0.73227036,-0.7051653862
0.812,0.9333938956,5.724775791,8.491333008,0.09093165398,-0.7620805502,-0.7195643187
0.814,1.027840376,5.759271622,8.575656891,0.09627236426,-0.790302515,-0.733317554
0.816,1.12649107,5.778779507,8.662900925,0.1031664088,-0.8267275691,-0.7505962849
0.818,1.219529748,5.779583931,8.754206657,0.1107062325,-0.8661894798,-0.7693237066
0.82,1.30714798,5.770447254,8.854877472,0.1172512174,-0.9018115997,-0.7873529196
0.822,1.378121734,5.758505344,8.953155518,0.1227664575,-0.9349379539,-0.8041604757
0.824,1.447936535,5.752098083,9.042449951,0.1275312006,-0.9664062858,-0.8201476932
0.826,1.516698003,5.738537788,9.141876221,0.1313534826,-0.9959546924,-0.8370773792
0.828,1.583017468,5.721596241,9.231619835,0.1338667572,-1.023129463,-0.8547052145
0.83,1.655801177,5.736210346,9.311451912,0.1352106631,-1.048070192,-0.8716523051
0.832,1.72313571,5.758495808,9.397577286,0.1354375482,-1.067391038,-0.8851960897
0.834,1.791964293,5.777448177,9.472332954,0.1348965019,-1.081877232,-0.897954464
0.836,1.86227715,5.807136059,9.523703575,0.1330988109,-1.097236156,-0.9154601097
0.838,1.950479507,5.842895985,9.554109573,0.1307949722,-1.109802485,-0.9323723316
0.84,2.034965992,5.873148918,9.590310097,0.1288925707,-1.117132902,-0.9465269446
0.842,2.134919167,5.914319992,9.623876572,0.1262396574,-1.122630715,-0.9611179233
0.844,2.231281042,5.949112415,9.644849777,0.1210560352,-1.125824571,-0.9755867124
0.846,2.310797453,5.971052647,9.672316551,0.1129402518,-1.12491703,-0.993144691
0.848,2.382470131,5.970554829,9.682324409,0.1049117446,-1.121391535,-1.012290955
0.85,2.452323198,5.961791992,9.684105873,0.09880308807,-1.117743731,-1.027335644
0.852,2.522799015,5.953910351,9.696372986,0.09063494951,-1.112472892,-1.041368127
0.854,2.583123207,5.946861744,9.710987091,0.08066911995,-1.104322195,-1.057477593
0.856,2.643505096,5.923092365,9.724031448,0.07030186057,-1.091860533,-1.076047897
0.858,2.681103706,5.895501614,9.734805107,0.05756095797,-1.076362014,-1.094949722
0.86,2.713732004,5.876012802,9.761725426,0.04480260238,-1.061858296,-1.111809611
0.862,2.743209124,5.854416847,9.778292656,0.03455751762,-1.049641013,-1.125929356
0.864,2.76131916,5.830982208,9.797341347,0.02375393175,-1.03709209,-1.138932109
0.866,2.765829563,5.798469067,9.806716919,0.008953538723,-1.018713832,-1.155599952
0.868,2.754835367,5.774076939,9.803010941,-0.006527531426,-0.9986250401,-1.174379706
0.87,2.751387835,5.754617214,9.797686577,-0.0185179431,-0.9834930301,-1.189913154
0.872,2.734590054,5.727840424,9.768428802,-0.02972295694,-0.9675581455,-1.205690861
0.874,2.707286596,5.701695919,9.726818085,-0.03995058686,-0.9519025683,-1.220962524
0.876,2.640363932,5.669488907,9.616789818,-0.04948008433,-0.937957406,-1.236007214
0.878,2.61578989,5.65537262,9.571769714,-0.05967280641,-0.9237678647,-1.253512859
0.88,2.566469193,5.632129669,9.480694771,-0.06667158008,-0.914203465,-1.267562866
0.882,2.528583527,5.616854668,9.394770622,-0.07108726352,-0.9080948234,-1.279919744
0.884,2.471141815,5.605314255,9.324352264,-0.07541567832,-0.9024574161,-1.293149352
0.886,2.397333145,5.590432167,9.262486458,-0.07908086479,-0.896366179,-1.309276223
0.888,2.324808121,5.57705307,9.210408211,-0.08087855577,-0.8929453492,-1.32720077
0.89,2.260193348,5.577503204,9.162294388,-0.08098327368,-0.8928231597,-1.341442585
0.892,2.186480761,5.577168465,9.127300262,-0.07944738865,-0.8937132955,-1.353555202
0.894,2.095146656,5.573500633,9.087776184,-0.07723081857,-0.8972388506,-1.366994262
0.896,2.00131321,5.552575111,9.033418655,-0.07223917544,-0.905284822,-1.383208275
0.898,1.913302422,5.54994154,8.972165108,-0.06421066076,-0.917414844,-1.399911165
0.9,1.824755192,5.545919418,8.908192635,-0.05714207888,-0.9318138361,-1.414589405
0.902,1.741800904,5.536150932,8.853288651,-0.05206317082,-0.9446245432,-1.426562309
0.904,1.664889574,5.552268505,8.790781021,-0.04715879634,-0.9564578533,-1.436493278
0.906,1.593733907,5.568491936,8.715947151,-0.0404218249,-0.9704379439,-1.447157145
0.908,1.538437366,5.57628727,8.651735306,-0.0307352487,-0.9884322882,-1.461294413
0.91,1.459495783,5.580079556,8.619068146,-0.02111848444,-1.005222321,-1.475257039
0.912,1.40175724,5.582377911,8.592388153,-0.01277581044,-1.018696308,-1.486287475
0.914,1.355635285,5.592088699,8.57315731,-0.004974188283,-1.033322215,-1.497736812
0.916,1.335935831,5.58651495,8.577159882,0.001989675453,-1.04971087,-1.511856556
0.918,1.321187496,5.581621647,8.592186928,0.008290314116,-1.067094326,-1.527075768
0.92,1.296536922,5.573625088,8.602415085,0.0124441972,-1.080498457,-1.538647413
0.922,1.277526855,5.565589905,8.617238998,0.01411971357,-1.090673685,-1.548717856
0.924,1.272661924,5.566164494,8.624220848,0.0151320044,-1.101459861,-1.559120059
0.926,1.25165987,5.561308861,8.638471603,0.01490511186,-1.112158656,-1.569993496
0.928,1.235187888,5.53697443,8.669078827,0.01260127686,-1.12219429,-1.584514618
0.93,1.227258205,5.518041134,8.709712982,0.01008800324,-1.12912333,-1.598320127
0.932,1.234498262,5.51098299,8.757701874,0.006544984877,-1.131304979,-1.609298229
0.934,1.259043574,5.497038841,8.805193901,5.235987919e-05,-1.132823348,-1.622929335
0.936,1.305155993,5.483516693,8.849246979,-0.008883725852,-1.133765936,-1.63668251
0.938,1.37549758,5.481687546,8.891241074,-0.01947787404,-1.13003087,-1.648271441
0.94,1.456957936,5.476257324,8.936759949,-0.03232349828,-1.121583462,-1.658987761
0.942,1.568680882,5.481448174,8.992027283,-0.0444884412,-1.112769604,-1.667470098
0.944,1.697565675,5.480078697,9.043934822,-0.05701990798,-1.104444385,-1.674381614
0.946,1.837300777,5.486150265,9.090553284,-0.07442083955,-1.093797803,-1.682881355
0.948,1.986153126,5.481495857,9.145112991,-0.09697049111,-1.077479005,-1.693911791
0.95,2.144342661,5.469180107,9.209019661,-0.1175130159,-1.059781313,-1.703772902
0.952,2.290398598,5.463912964,9.278421402,-0.135350287,-1.04311347,-1.71188879
0.954,2.436416149,5.453790665,9.351024628,-0.1549154222,-1.023059607,-1.721191287
0.956,2.574274302,5.452727318,9.416165352,-0.1732937396,-1.001644492,-1.730965137
0.958,2.687290192,5.430001259,9.48938942,-0.1924574524,-0.9784141183,-1.741576791
0.96,2.789321423,5.393629074,9.57730484,-0.2094046026,-0.9579064846,-1.750949264
0.962,2.942483425,5.389951229,9.665994644,-0.2226341963,-0.9416749477,-1.759187102
0.964,3.072229862,5.354469299,9.736911774,-0.2349562198,-0.9259146452,-1.767268062
0.966,3.203145027,5.334673882,9.836089134,-0.246283412,-0.9090722203,-1.775610685
0.968,3.325785637,5.299048424,9.906393051,-0.2553067505,-0.8924391866,-1.784686446
0.97,3.448014498,5.283400059,9.933120728,-0.2608743608,-0.8806233406,-1.79154551
0.972,3.564659834,5.283246517,9.970059395,-0.2647315264,-0.8717046976,-1.796851397
0.974,3.66983223,5.265079498,10.00882626,-0.266284883,-0.8636587262,-1.803117156
0.976,3.774315357,5.257772446,10.029109,-0.2653424144,-0.8578467965,-1.809766769
0.978,3.845748663,5.265155792,10.03155136,-0.2627593279,-0.8558047414,-1.815002799
0.98,3.904435396,5.291654587,10.02510643,-0.258867234,-0.8568693995,-1.819976926
0.982,3.946831942,5.324331284,10.02754879,-0.2534916103,-0.8601331711,-1.825160623
0.984,3.979862213,5.374446392,10.01213932,-0.2459343374,-0.8662068844,-1.829785705
0.986,4.012174606,5.432434082,9.973583221,-0.2359161526,-0.8743575811,-1.833258986
0.988,4.028024197,5.474409103,9.937957764,-0.222686559,-0.8861909509,-1.835615158
0.99,4.032630444,5.502574921,9.895705223,-0.2097187638,-0.8992285132,-1.837203383
0.992,4.015095234,5.527666092,9.863920212,-0.1971873045,-0.9117774367,-1.838791609
0.994,3.967536926,5.543362141,9.836634636,-0.1822996438,-0.9254259467,-1.841339827
0.996,3.893354893,5.540450573,9.803088188,-0.166137889,-0.9404357672,-1.843957782
0.998,3.7962749,5.540709496,9.755586624,-0.149138391,-0.956964016,-1.846279144
1.0,3.688746691,5.537510872,9.700816154,-0.1314931065,-0.9731606841,-1.848181486
1.002,3.569409847,5.522513866,9.638663292,-0.1139001846,-0.9889209867,-1.85083437
1.004,3.452573061,5.497345924,9.569739342,-0.09693558514,-1.004157782,-1.854761362
1.006,3.33836937,5.466910839,9.510104179,-0.08025024086,-1.019202471,-1.858880401
1.008,3.195684671,5.413874149,9.458963394,-0.06462953985,-1.033863187,-1.862458348
1.01,3.062653303,5.365214348,9.398324013,-0.05005604401,-1.047703743,-1.866437674
1.012,2.929736853,5.321764469,9.341916084,-0.03591887653,-1.059345007,-1.87153399
1.014,2.792376757,5.262244701,9.291110992,-0.02291617356,-1.068176389,-1.876438379
1.016,2.67905426,5.205731869,9.23738575,-0.01225221157,-1.075576544,-1.881290436
1.018,2.578057051,5.150128841,9.195343971,-0.003490658477,-1.081737638,-1.886718392
1.02,2.460885048,5.083943844,9.15234375,0.00448549632,-1.086449981,-1.892722249
1.022,2.373515844,5.027574539,9.111670494,0.01151917316,-1.089626551,-1.89895308
1.024,2.316418886,4.985791206,9.087796211,0.01785471849,-1.08966136,-1.904660344
1.026,2.277910709,4.939506531,9.068498611,0.02328269184,-1.085577369,-1.910123229
1.028,2.250137806,4.891124249,9.053951263,0.02673844434,-1.077915311,-1.915830493
1.03,2.246421814,4.856178284,9.05001545,0.02878047898,-1.067844748,-1.921624899
1.032,2.260835171,4.837465286,9.05920887,0.02930407785,-1.055540204,-1.927140236
1.034,2.308594704,4.805239201,9.078429222,0.02825688012,-1.041071415,-1.931276679
1.036,2.383724689,4.795145512,9.113978386,0.02560397983,-1.024770021,-1.934540391
1.038,2.475489855,4.796266079,9.159335136,0.02043780498,-1.00612998,-1.937123418
1.04,2.599461317,4.813188076,9.224658012,0.01328195538,-0.9852907062,-1.938502312
1.042,2.74422431,4.832045078,9.288496971,0.004363323096,-0.9629155993,-1.938729167
1.044,2.90481782,4.845567226,9.370474815,-0.006510077976,-0.9395980239,-1.9382056
1.046,3.076941967,4.859156609,9.457767487,-0.01883210242,-0.9149714112,-1.936407924
1.048,3.26322031,4.875456333,9.548027992,-0.0345749706,-0.8850564361,-1.933161616
1.05,3.444997549,4.887657166,9.651438713,-0.05045747012,-0.8567821383,-1.929618597
1.052,3.619889498,4.878684044,9.745981216,-0.06480407715,-0.8323300481,-1.925970793
1.054,3.806378365,4.877563477,9.840024948,-0.08075638115,-0.8050156832,-1.921642423
1.056,4.016100883,4.911216259,9.929271698,-0.09796532989,-0.7774743438,-1.916092277
1.058,4.220364571,4.960124969,9.998664856,-0.1154011711,-0.7511199117,-1.909425139
1.06,4.410033226,4.995693207,10.06415176,-0.132278502,-0.7255682945,-1.902600884
1.062,4.585681438,5.022192478,10.13565159,-0.1486147791,-0.700959146,-1.895410061
1.064,4.755813599,5.043376446,10.2442627,-0.1644274741,-0.6783047318,-1.888044834
1.066,5.000778675,5.092036247,10.29048061,-0.1803274155,-0.6580414772,-1.880644679
1.068,5.175833225,5.121130466,10.33113384,-0.1950056404,-0.6403263807,-1.873523712
1.07,5.311910152,5.145129681,10.4275341,-0.2076069117,-0.6245835423,-1.866839051
1.072,5.446799278,5.176494122,10.48500347,-0.2184279561,-0.6102892756,-1.859072328
1.074,5.567342758,5.208021164,10.50198364,-0.2272418737,-0.5991017222,-1.85116601
1.076,5.669900417,5.223678589,10.54023361,-0.2343104482,-0.5901307464,-1.844481349
1.078,5.765649319,5.241003513,10.54172707,-0.2390751988,-0.5823814869,-1.838285446
1.08,5.84769392,5.252255917,10.53437233,-0.2413266748,-0.577965796,-1.832298994
1.082,5.901247501,5.23718214,10.52331161,-0.2431941777,-0.5777388811,-1.826696515
1.084,5.928694725,5.224128723,10.51397324,-0.2445904464,-0.58049649,-1.821268559
1.086,5.95980978,5.195188046,10.51587963,-0.2426182181,-0.5835159421,-1.815578699
1.088,5.959637165,5.1619277,10.51840782,-0.238045454,-0.5866225958,-1.809801698
1.09,5.94464922,5.111668587,10.51618671,-0.2333330661,-0.5904274583,-1.804914832
1.092,5.897569656,5.069798946,10.51066017,-0.2282541543,-0.5938657522,-1.801040173
1.094,5.845702171,5.024452686,10.49768353,-0.2217789888,-0.5965186357,-1.796292901
1.096,5.79074049,4.963869572,10.49341202,-0.2115688175,-0.6007598042,-1.790585637
1.098,5.726509094,4.908975601,10.48912239,-0.1998227388,-0.6072174907,-1.786361933
1.1,5.637942791,4.836728096,10.48321247,-0.1912706345,-0.6126978397,-1.784319878
1.102,5.554729939,4.765964985,10.47918129,-0.1849350929,-0.6171309948,-1.78255713
1.104,5.488726616,4.687636375,10.47360706,-0.1782504767,-0.6227334738,-1.779939175
1.106,5.413864613,4.60310173,10.48506165,-0.1714436859,-0.6272189617,-1.776972055
1.108,5.337872505,4.506471634,10.49142075,-0.1651954204,-0.6287199259,-1.774825335
1.11,5.275001049,4.418336391,10.50419617,-0.1601165086,-0.6293308139,-1.772696018
1.112,5.200224876,4.33450079,10.51310253,-0.1564687639,-0.629278481,-1.769292593
1.114,5.111802578,4.243550301,10.53104973,-0.1540427655,-0.6270444393,-1.766325593
1.116,5.016207218,4.165048599,10.53516674,-0.1527512223,-0.6229777932,-1.765121222
1.118,4.939228535,4.089459419,10.53645134,-0.1522101611,-0.6175323725,-1.764318466
1.12,4.892541409,4.022670746,10.52833843,-0.1529432088,-0.6109001637,-1.762730122
1.122,4.858409882,3.952118397,10.51189518,-0.1551423222,-0.6028192639,-1.761456132
1.124,4.830780983,3.906494379,10.50693417,-0.1585457027,-0.5938657522,-1.760618329
1.126,4.830282688,3.865400314,10.51260471,-0.1631010175,-0.5838999152,-1.759955049
1.128,4.848210335,3.834467173,10.5280714,-0.169052586,-0.5713160634,-1.759065032
1.13,4.88527298,3.805325031,10.53177738,-0.1752659678,-0.5570392609,-1.757755995
1.132,4.933290958,3.787607908,10.54217815,-0.1822123677,-0.5423959494,-1.756272435
1.134,4.968322754,3.790519238,10.55815125,-0.1913578957,-0.5272814035,-1.75377667
1.136,5.030514717,3.805133581,10.56660843,-0.202021867,-0.5113465786,-1.750547767
1.138,5.119215012,3.815917015,10.57967091,-0.2136108428,-0.4947484732,-1.746708035
1.14,5.215088367,3.822438717,10.60023212,-0.2265437394,-0.477591902,-1.741681457
1.142,5.327232838,3.815122128,10.63312912,-0.2406459898,-0.4601909518,-1.735206366
1.144,5.454843521,3.788201571,10.66386032,-0.2549053431,-0.4423711598,-1.726898551
1.146,5.589369297,3.786420345,10.70566273,-0.2692344785,-0.4237484932,-1.716880322
1.148,5.713953972,3.809299231,10.76834393,-0.2835985422,-0.4054399729,-1.707123995
1.15,5.840118885,3.770819902,10.79857731,-0.2976484597,-0.3878819644,-1.697158217
1.152,5.972269058,3.696465492,10.83013248,-0.3115761876,-0.3712838888,-1.685830951
1.154,6.078629017,3.64258647,10.83883858,-0.3257656991,-0.3559948206,-1.674276948
1.156,6.19422102,3.593457222,10.81800842,-0.3397457898,-0.3418751061,-1.663263917
1.158,6.327453613,3.535996675,10.82296944,-0.3520678282,-0.3285582364,-1.651831985
1.16,6.45931673,3.481657743,10.82143784,-0.3624350727,-0.3165154457,-1.639928818
1.162,6.579773903,3.42960763,10.8162756,-0.3714060783,-0.3056071401,-1.629090309
1.164,6.707298756,3.378994465,10.81841087,-0.3788411617,-0.2948559225,-1.618670702
1.166,6.822718143,3.33387804,10.83698082,-0.3837629855,-0.2854311466,-1.608443022
1.168,6.909723759,3.278016329,10.84699821,-0.3860842884,-0.2774899006,-1.598267794
1.17,6.961984158,3.216226816,10.86714745,-0.3863810003,-0.2701595128,-1.588144898
1.172,6.983541489,3.137830973,10.90724468,-0.3855781257,-0.2633701861,-1.57833612
1.174,6.975257874,3.06214571,10.95163345,-0.3833441138,-0.2577851415,-1.569295287
1.176,6.944248199,2.978530407,10.98482704,-0.3795916438,-0.2536137998,-1.560551286
1.178,6.911189079,2.866778851,11.02062511,-0.3749141693,-0.2497042567,-1.551632643
1.18,6.843815804,2.76059103,11.05575275,-0.3692243993,-0.2465277612,-1.543900847
1.182,6.771606922,2.655906916,11.07996273,-0.363429904,-0.2442937344,-1.536657691
1.184,6.691534996,2.551720858,11.09791946,-0.3576005101,-0.241483748,-1.52927494
1.186,6.613829136,2.441195011,11.11823273,-0.3514395058,-0.239092648,-1.522485614
1.188,6.527043819,2.332000256,11.15070724,-0.3445105255,-0.2371553332,-1.515940666
1.19,6.425510883,2.234527588,11.17486954,-0.3372674286,-0.2338566631,-1.510128617
1.192,6.313270569,2.140809059,11.20425129,-0.3295879662,-0.2296678722,-1.505224347
1.194,6.204860687,2.036728382,11.22576046,-0.3211056888,-0.2247984111,-1.501018047
1.196,6.100588799,1.939255476,11.23721504,-0.3125884533,-0.2180963457,-1.496794343
1.198,6.003978252,1.839264035,11.26765919,-0.3044028878,-0.2096838504,-1.491907477
1.2,5.897761822,1.725051045,11.30235577,-0.2966361642,-0.2008873969,-1.487718701
1.202,5.814577579,1.607084036,11.33333683,-0.2884331048,-0.1919338554,-1.483791709
1.204,5.739284515,1.501585841,11.36848354,-0.2803522348,-0.1819854826,-1.479044318
1.206,5.673932552,1.405262351,11.40277863,-0.2735978067,-0.1700474322,-1.474262118
1.208,5.627752781,1.316207647,11.44820118,-0.267698586,-0.1560324281,-1.469794154
1.21,5.615533352,1.225122571,11.4929924,-0.2624451518,-0.1399055868,-1.46544826
1.212,5.612018585,1.133855581,11.52174091,-0.2590417564,-0.1210385859,-1.460526466
1.214,5.623443127,1.047271729,11.56071854,-0.2573488057,-0.0994663164,-1.454731941
1.216,5.671586037,0.9769970775,11.6032114,-0.2569822669,-0.07648032904,-1.448588371
1.218,5.745538235,0.9041367769,11.63907623,-0.2580818236,-0.05260422453,-1.441676855
1.22,5.8378582,0.8407766223,11.6817894,-0.2601064146,-0.02773328125,-1.43349123
1.222,5.955576897,0.7861791849,11.73891544,-0.2637890577,-0.00214675488,-1.424799562
1.224,6.084365845,0.7334110141,11.78568745,-0.2687458098,0.02434734255,-1.415880919
1.226,6.231369495,0.6747243404,11.84706497,-0.2745577395,0.0515570268,-1.406578302
1.228,6.385537148,0.6312647462,11.91366196,-0.2803871334,0.07810348272,-1.396787047
1.23,6.552298069,0.5929767489,11.96728325,-0.2852915227,0.1037423685,-1.386175394
1.232,6.721558571,0.5664681196,12.01844215,-0.2904402316,0.1289972812,-1.374603868
1.234,6.880083561,0.5230564475,12.08677292,-0.2960078418,0.1525417715,-1.362630844
1.236,7.045628071,0.478035897,12.15434647,-0.3011216521,0.1741314977,-1.350815058
1.238,7.222109318,0.4408778548,12.21918201,-0.3069859743,0.1939584464,-1.339051485
1.24,7.394194603,0.4336282313,12.28190994,-0.3137927353,0.2118131518,-1.326694608
1.242,7.558830261,0.4352850318,12.33598042,-0.320669353,0.2269800752,-1.313150764
1.244,7.716598034,0.4333026111,12.3846693,-0.3282091618,0.2397733331,-1.298472643
1.246,7.868026733,0.4338772297,12.44152641,-0.3366391063,0.2519208193,-1.283654809
1.248,8.008930206,0.4238886237,12.50566196,-0.3451214135,0.26350981,-1.268173695
1.25,8.125039101,0.4008947015,12.55946445,-0.3529928327,0.2735803723,-1.251750112
1.252,8.237270355,0.3888854086,12.59550285,-0.360288322,0.2830575109,-1.234977484
1.254,8.331783295,0.3858878613,12.61637974,-0.3670601845,0.2916445136,-1.218047857
1.256,8.415829659,0.3841736019,12.63483429,-0.3726452589,0.2982942164,-1.200734138
1.258,8.493229866,0.3681324422,12.64635563,-0.3765024245,0.3041585386,-1.183595061
1.26,8.544350624,0.3484616876,12.65532875,-0.3793298602,0.3096912205,-1.168096542
1.262,8.589801788,0.323676914,12.65724373,-0.3811275363,0.3144734204,-1.153261185
1.264,8.625236511,0.2978099585,12.64888382,-0.3821572959,0.3186272979,-1.138391018
1.266,8.621749878,0.2734944522,12.62480736,-0.3832219541,0.3225368559,-1.122857571
1.268,8.611800194,0.2581906915,12.59229374,-0.383954972,0.325381726,-1.106748223
1.27,8.5733881,0.2287994772,12.56385994,-0.383954972,0.3284360468,-1.09135437
1.272,8.505401611,0.1872840226,12.53121376,-0.3836233616,0.3318918049,-1.076571465
1.274,8.425904274,0.1474732459,12.49081802,-0.3838153481,0.3358187973,-1.061404586
1.276,8.335327148,0.1167125478,12.45990467,-0.3845134974,0.3405835629,-1.046063066
1.278,8.234923363,0.06796659529,12.41067982,-0.3851243556,0.345679909,-1.030669332
1.28,8.119551659,0.007441178896,12.379076,-0.3853687048,0.351526767,-1.014943838
1.282,7.994813919,-0.06818686426,12.34210014,-0.3857875764,0.3589618802,-0.9993755221
1.284,7.872288704,-0.1551251262,12.30621624,-0.3853163421,0.3680026829,-0.9842086434
1.286,7.72916317,-0.2491693646,12.27922821,-0.3841818869,0.3770260215,-0.9695129395
1.288,7.5885849,-0.3554144502,12.28003311,-0.3837280869,0.3873409331,-0.9546951056
1.29,7.447078228,-0.4951017499,12.27478504,-0.3832219541,0.3997502029,-0.9395107627
1.292,7.309009075,-0.6212570071,12.28434277,-0.3830125034,0.4133114219,-0.924169302
1.294,7.172760487,-0.748695612,12.29994297,-0.3832568526,0.4279896319,-0.9087755084
1.296,7.057407856,-0.8747646809,12.31749725,-0.3839724362,0.4437499642,-0.8936783671
1.298,7.014034271,-0.9656294584,12.32066727,-0.3858574033,0.4609065354,-0.8786860108
1.3,6.897369862,-1.099857926,12.33314514,-0.3888244629,0.4792324901,-0.8634318113
1.302,6.79665947,-1.246497989,12.39021397,-0.3919311464,0.4990245402,-0.8474445939
1.304,6.742071629,-1.378792048,12.40094948,-0.3954043388,0.5193750858,-0.83114326
1.306,6.700604439,-1.510664701,12.42109966,-0.3996454775,0.5390275121,-0.8153480291
1.308,6.662833691,-1.634234309,12.49209213,-0.4039040804,0.5596572757,-0.8000938296
1.31,6.633566856,-1.732501864,12.56891727,-0.407848537,0.5806710124,-0.785677433
1.312,6.621193409,-1.805304646,12.64468002,-0.4113566577,0.6012310386,-0.7722209096
1.314,6.641094208,-1.857986689,12.71827698,-0.4149869382,0.6218957305,-0.7594974637
1.316,6.666090012,-1.909213066,12.78306484,-0.4183554053,0.6438868642,-0.7461107969
1.318,6.713255405,-1.947031856,12.8372879,-0.4213050306,0.6673615575,-0.7315024137
1.32,6.768044472,-1.980330467,12.87020397,-0.4240801036,0.691429615,-0.7167194486
1.322,6.819759369,-2.001562357,12.90580082,-0.4274311364,0.7157420516,-0.7018666863
1.324,6.87503624,-2.000077724,12.94527626,-0.4319515228,0.7389025688,-0.6866648793
1.326,6.947906017,-1.990702152,12.98284531,-0.4366290271,0.7622202039,-0.6713234186
1.328,7.017807484,-1.984256983,13.02253246,-0.4404163957,0.7865501046,-0.6565579772
1.33,7.085036755,-1.964662671,13.06240082,-0.4432263672,0.8100247383,-0.6420193911
1.332,7.179454327,-1.947357416,13.08771229,-0.4453207552,0.8315621018,-0.6269571781
1.334,7.271831989,-1.918540835,13.09349632,-0.4477467537,0.8507607579,-0.6122964025
1.336,7.361739159,-1.91222024,13.10944176,-0.4509407282,0.8683536649,-0.5981243253
1.338,7.437213898,-1.885022044,13.13240719,-0.4535063505,0.8853008151,-0.5838300586
1.34,7.504203796,-1.855525494,13.14698315,-0.4548677206,0.9003978968,-0.5701292753
1.342,7.562689304,-1.821671486,13.16212368,-0.4560545385,0.9134878516,-0.5553812385
1.344,7.60508585,-1.799347878,13.17553139,-0.458114028,0.9257749915,-0.5396034718
1.346,7.644302845,-1.795134187,13.18766499,-0.4605400264,0.9373989105,-0.5237209201
1.348,7.665621281,-1.790048838,13.19612122,-0.4627740383,0.9478010535,-0.5071403384
1.35,7.661905289,-1.809528112,13.20414639,-0.464327395,0.9577319622,-0.4912403822
1.352,7.65883112,-1.828911543,13.19395733,-0.4646415412,0.9674534798,-0.4762479961
1.354,7.628501415,-1.868492484,13.17875862,-0.4653920531,0.9764593244,-0.460365504
1.356,7.592003822,-1.91640532,13.14948273,-0.4669628441,0.9845402241,-0.4450589716
1.358,7.526613712,-1.968531728,13.11830044,-0.4669802785,0.9909805059,-0.4303109348
1.36,7.453992844,-2.036929369,13.08219624,-0.4660378098,0.9958150387,-0.4145157039
1.362,7.416260242,-2.065602303,13.06705475,-0.4653396904,1.000632167,-0.3992440701
1.364,7.300093174,-2.144821644,13.01789761,-0.4644146562,1.00637424,-0.3851417899
1.366,7.224714279,-2.199878693,12.98349667,-0.4640481472,1.012500405,-0.37182495
1.368,7.147324085,-2.249055624,12.96058941,-0.4642052054,1.019411922,-0.3588396907
1.37,7.113489151,-2.273505211,12.95492935,-0.463960886,1.026637554,-0.3462907672
1.372,7.037822723,-2.333982706,12.96664143,-0.4632278383,1.033374548,-0.3339163959
1.374,6.929145336,-2.465098858,13.01096344,-0.4629311264,1.040216208,-0.3219434321
1.376,6.850089073,-2.54295826,13.04950142,-0.4637514353,1.047738552,-0.3101100922
1.378,6.823723793,-2.583266973,13.06587696,-0.4641005099,1.05585444,-0.2980498672
1.38,6.760248661,-2.672848463,13.10062218,-0.463280201,1.064528704,-0.2868274152
1.382,6.680358887,-2.760830641,13.14538383,-0.4629485905,1.074040771,-0.2759365439
1.384,6.58612299,-2.889935493,13.20776653,-0.4634547234,1.084861755,-0.2652027905
1.386,6.531908989,-2.969375134,13.25776768,-0.4642750323,1.096537948,-0.2551322281
1.388,6.507401943,-3.006092548,13.28408527,-0.4649382532,1.108860016,-0.2450442314
1.39,6.457812786,-3.081394911,13.3417654,-0.4645717442,1.121129751,-0.2346246094
1.392,6.41391325,-3.14125967,13.39309788,-0.4637863338,1.133381963,-0.2237686664
1.394,6.362677097,-3.24283123,13.46588039,-0.4631580114,1.146262407,-0.2120749503
1.396,6.335488796,-3.291730404,13.53324413,-0.4625820518,1.159404755,-0.2003812492
1.398,6.325433254,-3.304955959,13.56914711,-0.462983489,1.172006011,-0.1889842451
1.4,6.321995258,-3.344671249,13.64499569,-0.4637863338,1.182512879,-0.1770811081
1.402,6.325298786,-3.39347434,13.70962048,-0.4637863338,1.191833019,-0.1649859697
1.404,6.364966393,-3.442574739,13.82668781,-0.4625296891,1.200995922,-0.1531177312
1.406,6.380040169,-3.450341463,13.86670876,-0.4591786861,1.209129214,-0.1419650763
1.408,6.429983139,-3.473278046,13.95211411,-0.4536983371,1.215918541,-0.1320690662
1.41,6.477982044,-3.506777525,14.03886127,-0.4470660985,1.220892668,-0.1233075112
1.412,6.515044212,-3.575175285,14.14000225,-0.4389851987,1.225133896,-0.1159422249
1.414,6.582742691,-3.640604019,14.281394,-0.4281292558,1.23096323,-0.1097986624
1.416,6.628807068,-3.667141438,14.37310123,-0.4154930711,1.237752557,-0.1044579521
1.418,6.656896114,-3.688181639,14.40497303,-0.4034154117,1.244297624,-0.09911724925
1.42,6.729430676,-3.722715616,14.45577812,-0.3902905285,1.250126958,-0.09442231059
1.422,6.790923119,-3.725243568,14.50152683,-0.3764325976,1.257544637,-0.09030333161
1.424,6.901583672,-3.704337597,14.53587914,-0.3638313413,1.268452883,-0.08609709144
1.426,6.966169357,-3.68956995,14.53075504,-0.3520852625,1.280478239,-0.08187339455
1.428,6.990465641,-3.679600716,14.52521038,-0.3409849703,1.292939901,-0.0766723156
1.43,7.02866745,-3.66403842,14.50418854,-0.3314205706,1.305907726,-0.07108726352
1.432,7.028457165,-3.67007184,14.47684669,-0.3237411082,1.31812501,-0.06532767415
1.434,7.016983986,-3.693104029,14.44710159,-0.3165154457,1.330045581,-0.05920156837
1.436,7.008096695,-3.72860527,14.42437553,-0.3094643354,1.342472315,-0.05293583497
1.438,6.975497246,-3.772821188,14.39991665,-0.3037571013,1.355422735,-0.04658283666
1.44,6.954983234,-3.798266888,14.3903017,-0.299847573,1.368268371,-0.04052654654
1.442,6.911179066,-3.841391325,14.38605022,-0.2963743508,1.379804969,-0.03427826613
1.444,6.860728741,-3.895011663,14.36524773,-0.2936865389,1.390503764,-0.02731440216
1.446,6.748795033,-3.97965169,14.33056164,-0.2910161912,1.402127743,-0.02068215236
1.448,6.66667366,-4.025821686,14.32092667,-0.2883633077,1.415688872,-0.01452113967
1.45,6.617937565,-4.054044247,14.30713654,-0.2869495749,1.429407239,-0.008534659632
1.452,6.505486488,-4.108737469,14.28219795,-0.2851170003,1.442584395,-0.003263765713
1.454,6.389846802,-4.142754555,14.26948071,-0.2831098437,1.455517292,0.002024581889
1.456,6.270088673,-4.187468052,14.23092365,-0.2813470662,1.46899128,0.007976154797
1.458,6.143799305,-4.238215923,14.19645691,-0.279689014,1.482988834,0.01385791413
1.46,5.947579861,-4.305875778,14.15054607,-0.2777516842,1.497527361,0.0197396744
1.462,5.829718113,-4.349345207,14.11469078,-0.2753780484,1.513863683,0.02591813914
1.464,5.779105186,-4.370423794,14.10322762,-0.2734581828,1.531247139,0.03253293782
1.466,5.634294033,-4.439673424,14.07056999,-0.2720619142,1.548421144,0.03995058686
1.468,5.555745125,-4.492432117,14.07044506,-0.2718001306,1.565822124,0.04803146049
1.47,5.522724152,-4.511422634,14.07949638,-0.27295205,1.583956122,0.05605997518
1.472,5.464564323,-4.540153503,14.10595608,-0.2746973634,1.602700949,0.06436774135
1.474,5.417101383,-4.562505722,14.14273167,-0.2763379812,1.622335911,0.07342600077
1.476,5.373747349,-4.576143265,14.1761837,-0.2779611349,1.642634034,0.0824842602
1.478,5.337317467,-4.588784695,14.22356892,-0.2805093229,1.664153934,0.09154251963
1.48,5.313758373,-4.589416504,14.26599407,-0.2831273079,1.684906006,0.1009149402
1.482,5.291836739,-4.585777283,14.30140877,-0.28387779,1.703755498,0.110409528
1.484,5.271428585,-4.580385685,14.33917046,-0.2829178572,1.72248292,0.1199564785
1.486,5.266880035,-4.558521748,14.37120533,-0.2819055915,1.740215421,0.1298350394
1.488,5.267540455,-4.541187286,14.38933372,-0.2802300751,1.756586671,0.1404815465
1.49,5.259132385,-4.522034168,14.40099907,-0.2776469886,1.77208519,0.1504997462
1.492,5.262512684,-4.514305592,14.43025589,-0.2743832171,1.785332203,0.1599419713
1.494,5.261210442,-4.510771751,14.45130539,-0.2696010172,1.796415091,0.1697856337
1.496,5.285401344,-4.499116898,14.51142883,-0.263213098,1.80564785,0.1804146916
1.498,5.296251774,-4.493878365,14.54151917,-0.2555685639,1.812890887,0.1910611987
1.5,5.33062315,-4.481294632,14.59796524,-0.2467895597,1.818039656,0.2004510611
1.502,5.364802837,-4.474887848,14.643713,-0.2368935347,1.822036505,0.2102598101
1.504,5.415387154,-4.466114998,14.68051624,-0.2265437394,1.82523036,0.2205747068
1.506,5.481658459,-4.448532104,14.7439537,-0.214448601,1.825911045,0.2307674289
1.508,5.528891563,-4.437518597,14.78129387,-0.2010095716,1.823973775,0.2409078032
1.51,5.551473618,-4.429215908,14.79040146,-0.1879545003,1.819715142,0.2500882149
1.512,5.582435608,-4.4196105,14.80244923,-0.1744282097,1.815142393,0.2585530877
1.514,5.600746632,-4.426543713,14.80514908,-0.1597848982,1.811389923,0.2680127621
1.516,5.605669022,-4.422875881,14.80069637,-0.145612821,1.807323337,0.2778389752
1.518,5.588210583,-4.432979584,14.77981949,-0.1328893751,1.803466201,0.2872113883
1.52,5.574065208,-4.461527824,14.75811863,-0.1207767874,1.800324559,0.2973517478
1.522,5.539368629,-4.500351906,14.73150349,-0.11047934,1.798090577,0.3084171414
1.524,5.521402836,-4.526267052,14.69886589,-0.1009149402,1.79529798,0.3195523322
1.526,5.538066387,-4.58023262,14.67826653,-0.09103637189,1.791947007,0.330704987
1.528,5.569229126,-4.618252277,14.66968536,-0.08227481693,1.788997412,0.34156093
1.53,5.602250099,-4.646465302,14.64762115,-0.0745953694,1.786850572,0.3516663909
1.532,5.583230495,-4.69018364,14.62673378,-0.06770132482,1.785349607,0.3624001741
1.534,5.549434185,-4.728289604,14.62952995,-0.0607723631,1.783167958,0.3743556738
1.536,5.507219315,-4.757183075,14.6153183,-0.0548033379,1.780375481,0.3858399391
1.538,5.437260628,-4.787234783,14.56303787,-0.05016076192,1.777670145,0.3958755732
1.54,5.372090816,-4.807298183,14.51494312,-0.04574507847,1.7743541,0.4053352773
1.542,5.298904896,-4.829526424,14.46068192,-0.04111995548,1.771736026,0.4148647487
1.544,5.241357327,-4.857059479,14.39645004,-0.03670427576,1.770043135,0.4244291782
1.546,5.160433769,-4.89372921,14.31258583,-0.03331833705,1.768402457,0.4336794019
1.548,5.124597073,-4.910727978,14.29205227,-0.02974040993,1.76742506,0.4421966076
1.55,5.045415878,-4.95424509,14.2595005,-0.02764601447,1.767652035,0.4500680566
1.552,4.963228226,-4.974193573,14.23362541,-0.02775073424,1.768070936,0.4573809803
1.554,4.85332489,-4.971301079,14.21187592,-0.02778564207,1.767599702,0.4641354084
1.556,4.758858681,-4.980667591,14.19248295,-0.0284314137,1.767721772,0.4706803858
1.558,4.669756413,-4.986949921,14.17029285,-0.02933898382,1.768088341,0.4771381021
1.56,4.537836075,-4.971406937,14.13806725,-0.03033382259,1.768873692,0.4835434556
1.562,4.501060963,-4.958937645,14.12259197,-0.03167772666,1.769519567,0.4899488389
1.564,4.424877644,-4.936058521,14.09041309,-0.03255039081,1.768507242,0.4966509044
1.566,4.349373817,-4.919825554,14.06801224,-0.03321361542,1.76651752,0.5034925938
1.568,4.283351421,-4.89304924,14.04901314,-0.03380702808,1.764440656,0.5097408891
1.57,4.235697269,-4.851926327,14.03934956,-0.03371975943,1.761072159,0.5157622695
1.572,4.178734303,-4.78579855,14.03707027,-0.03337069601,1.756237507,0.5216789246
1.574,4.129979134,-4.721270084,14.03302956,-0.03291691095,1.750792146,0.5269323587
1.576,4.10223484,-4.650995731,14.04084396,-0.03209660575,1.744159818,0.5319065452
1.578,4.093950748,-4.568184376,14.04239559,-0.03082251363,1.734822392,0.5367760062
1.58,4.108306408,-4.500256538,14.0411787,-0.02935643867,1.723774433,0.5415931344
1.582,4.141997337,-4.433525562,14.04975986,-0.028763026,1.713913321,0.546410203
1.584,4.188081264,-4.373449802,14.05470085,-0.0288328398,1.702952623,0.5508782864
1.586,4.237669945,-4.309036255,14.06130028,-0.02790781483,1.689321637,0.5549100041
1.588,4.292583466,-4.268689632,14.08071232,-0.0265988186,1.674625993,0.5581388474
1.59,4.35706377,-4.22484684,14.10706711,-0.02574360557,1.659493923,0.5610186458
1.592,4.402802944,-4.190063477,14.13401699,-0.024137903,1.64418745,0.5647187233
1.594,4.433688164,-4.154552937,14.1594429,-0.0219038818,1.628165245,0.568436265
1.596,4.472311497,-4.110920906,14.17921829,-0.02003637888,1.611549735,0.5708972216
1.598,4.498609543,-4.076817989,14.20054722,-0.01865756884,1.594358325,0.5725377798
1.6,4.510762215,-4.061542988,14.2083416,-0.01651081443,1.575997353,0.5741435289
1.602,4.518519402,-4.042676449,14.20257759,-0.01216494478,1.556222796,0.5760633945
1.604,4.517456532,-4.042600155,14.1840744,-0.006928957067,1.536168933,0.5784195662
1.606,4.497326374,-4.049418926,14.14959812,-0.002268928103,1.516342044,0.5809677243
1.608,4.463481426,-4.037820816,14.10184765,0.001815142459,1.495956659,0.5829399824
1.61,4.417599201,-4.053392887,14.03192806,0.006335545331,1.476286769,0.5843711495
1.612,4.362647533,-4.084383488,13.96279335,0.01195550524,1.458816051,0.5846503973
1.614,4.291826725,-4.123974323,13.89172363,0.01865756884,1.441606998,0.5844409466
1.616,4.207770824,-4.144793987,13.83241367,0.02549926005,1.425131202,0.5846678615
1.618,4.140369415,-4.173860073,13.76478291,0.03143338114,1.410540223,0.5838300586
1.62,4.075917721,-4.214666367,13.71158409,0.03858922794,1.396699786,0.5822069049
1.622,4.020774364,-4.258633614,13.68010426,0.04686209187,1.383173466,0.5809328556
1.624,3.971645594,-4.314657688,13.67038345,0.05433209985,1.371985912,0.579449296
1.626,3.965544939,-4.361000061,13.68089008,0.06400122494,1.362386584,0.5782275796
1.628,3.998010397,-4.395150661,13.69205666,0.07677703351,1.353747129,0.5770931244
1.63,3.971271992,-4.434665203,13.73789024,0.09018116444,1.348650813,0.5759935379
1.632,3.992350578,-4.46279192,13.799613,0.1013338193,1.345945597,0.5752430558
1.634,4.038156033,-4.472933769,13.81931305,0.1106015146,1.344217658,0.5743005872
1.636,4.096038342,-4.475423813,13.83845711,0.1216319948,1.344444513,0.5729741454
1.638,4.158594131,-4.449394226,13.83935738,0.1330638975,1.348022461,0.5708448291
1.64,4.204276085,-4.414266109,13.82350826,0.1433962435,1.353886843,0.5684188008
1.642,4.245666504,-4.355349541,13.79232502,0.1513898522,1.360396862,0.5664640665
1.644,4.284366608,-4.297936916,13.76093292,0.1562244147,1.368390441,0.5650503635
1.646,4.312033653,-4.228600502,13.73810196,0.1607273668,1.379857302,0.5628861189
1.648,4.342095852,-4.155836105,13.71332645,0.165387392,1.393051982,0.5604426861
1.65,4.366794109,-4.085484982,13.68466282,0.1685464382,1.404414058,0.5591162443
1.652,4.391913891,-4.005796432,13.65112495,0.1704663038,1.415985584,0.5582610369
1.654,4.409065723,-3.916128635,13.62638855,0.1715658605,1.430489302,0.5579293966
1.656,4.436876774,-3.825637341,13.59707355,0.1720196456,1.45122385,0.558103919
1.658,4.464066029,-3.724755287,13.56368828,0.1718800217,1.47513485,0.5581737757
1.66,4.510388851,-3.63345027,13.54908371,0.1721418202,1.495275974,0.5578770638
1.662,4.579073906,-3.540775299,13.5348053,0.1725607067,1.510739565,0.5568124056
1.664,4.649415016,-3.459592819,13.51540279,0.1711644381,1.527756453,0.5554335713
1.666,4.728260994,-3.387527227,13.50653458,0.168686077,1.54794991,0.5542467833
1.668,4.813360214,-3.300617695,13.51150513,0.1664171368,1.566590071,0.5534439087
1.67,4.880771637,-3.209820032,13.52700996,0.1642354876,1.582367897,0.5531122684
1.672,4.951668739,-3.117930651,13.54443932,0.1624028832,1.596382856,0.5536184311
1.674,5.011111736,-3.034794092,13.57732582,0.1613382399,1.610921383,0.5547703505
1.676,5.054475784,-2.954387426,13.60229301,0.1618618369,1.625983596,0.5577548742
1.678,5.107176781,-2.87218976,13.6001091,0.1655270308,1.6415869,0.5618214607
1.68,5.160356998,-2.789359808,13.58705711,0.1705012172,1.655514598,0.5644220114
1.682,5.230832577,-2.718539238,13.57013416,0.173782438,1.670332432,0.5670574903
1.684,5.308366776,-2.6716609,13.53649139,0.1741838604,1.687419176,0.5697103739
1.686,5.380432129,-2.631457567,13.48035145,0.1718102098,1.700055361,0.5717349648
1.688,5.445400715,-2.606098175,13.41323757,0.1676912308,1.702987552,0.5744576454
1.69,5.491446495,-2.591100931,13.35147667,0.1634849906,1.699444532,0.5771279931
1.692,5.526315212,-2.574552298,13.29387188,0.1602037698,1.693266034,0.580129981
1.694,5.520301342,-2.577798605,13.23359585,0.1572890729,1.685394645,0.5835508108
1.696,5.475309372,-2.590171814,13.18488789,0.1548456103,1.677139282,0.5877745152
1.698,5.414190292,-2.607228279,13.13589287,0.1528908461,1.66809845,0.5939180851
1.7,5.325777531,-2.616699696,13.07448673,0.1517912894,1.658097744,0.6008470654
1.702,5.236100197,-2.632626057,13.00197029,0.1510233432,1.648987055,0.6068160534
1.704,5.142946243,-2.646454811,12.92046261,0.1503950208,1.638951421,0.6124011278
1.706,5.029317379,-2.634579659,12.83200169,0.1501332223,1.626036048,0.6191031933
1.708,4.897521496,-2.627598047,12.75184345,0.148457706,1.611305356,0.6265557408
1.71,4.757374287,-2.634024143,12.65913105,0.1452462971,1.599000812,0.6324375272
1.712,4.627340794,-2.634962559,12.57466316,0.1426806599,1.589890242,0.6363993883
1.714,4.503234863,-2.655600548,12.50024223,0.1397310644,1.579557896,0.6399075389
1.716,4.367004871,-2.681754827,12.4244318,0.1353851855,1.565560341,0.6419669986
1.718,4.241960526,-2.710992813,12.33567429,0.1314058453,1.550079226,0.6440788507
1.72,4.129021168,-2.753293753,12.26014137,0.1291543692,1.538403034,0.646504879
1.722,3.993834972,-2.795115471,12.20703793,0.1260302216,1.52861166,0.6487563252
1.724,3.887034416,-2.837655783,12.14932919,0.1212829277,1.516411901,0.6509379745
1.726,3.80962491,-2.869469881,12.10092735,0.1171464995,1.502606273,0.6534163356
1.728,3.732321024,-2.886995316,12.06188297,0.1126086414,1.487526655,0.6575702429
1.73,3.657554865,-2.889504671,12.01497555,0.1079311594,1.473808408,0.6617939472
1.732,3.609259129,-2.873721838,11.9406786,0.1044405028,1.462219357,0.6647610068
1.734,3.573690891,-2.843114614,11.85821247,0.1014559865,1.449618101,0.6685134768
1.736,3.528928757,-2.798974991,11.76664925,0.09770353138,1.436283827,0.6722310185
1.738,3.482203722,-2.741293907,11.68747711,0.09459684789,1.420122027,0.6737494469
1.74,3.451261044,-2.675702333,11.60307693,0.09334021062,1.405025005,0.6734178066
1.742,3.435468674,-2.595611572,11.53333855,0.09377653897,1.393819928,0.6707649231
1.744,3.413729429,-2.490027428,11.46437645,0.09583602846,1.382632375,0.665895462
1.746,3.385382175,-2.372232437,11.40478897,0.09983283281,1.370502353,0.6594901085
1.748,3.382805824,-2.255903006,11.35358238,0.1058891267,1.357674122,0.6518455744
1.75,3.400590181,-2.13248682,11.31831074,0.1115090847,1.347097516,0.6449340582
1.752,3.430153608,-2.018618584,11.2778101,0.1169545129,1.338056684,0.6389650106
1.754,3.454076529,-1.908935308,11.25146484,0.1232726052,1.327741742,0.631809175
1.756,3.477300406,-1.806961417,11.22759914,0.1296256036,1.317234874,0.6238330603
1.758,3.511862993,-1.702602983,11.19954872,0.136327669,1.305698276,0.6152285337
1.76,3.554403067,-1.61601913,11.16494846,0.1431519091,1.294685245,0.6063622832
1.762,3.597498894,-1.524771214,11.11228561,0.1487718672,1.286412358,0.5980195999
1.764,3.651435375,-1.429098964,11.0583868,0.1526290476,1.279884815,0.590828836
1.766,3.686658859,-1.353097439,10.99577332,0.1554739326,1.27409029,0.5837951899
1.768,3.712928057,-1.301468849,10.93235588,0.158196643,1.26667273,0.5733581185
1.77,3.727542162,-1.246526718,10.85386467,0.1602561325,1.260180116,0.5631130338
1.772,3.749655008,-1.196918964,10.76970291,0.1614080518,1.25689888,0.5551717877
1.774,3.756579161,-1.174250603,10.69609547,0.1621934474,1.254315734,0.5468814373
1.776,3.736822128,-1.146927953,10.61834145,0.1609368026,1.251680374,0.5368632674
1.778,3.718482494,-1.119413853,10.54393101,0.1582140923,1.24996984,0.5274385214
1.78,3.687367439,-1.116234303,10.46807194,0.1561720669,1.249585986,0.5201255679
1.782,3.644185781,-1.123608351,10.40196419,0.1537460536,1.251017094,0.5124112368
1.784,3.591130018,-1.132141352,10.32325172,0.1502379477,1.253495455,0.5051680803
1.786,3.52590251,-1.16071856,10.24371719,0.1459793448,1.256392717,0.4993736148
1.788,3.456078053,-1.180283904,10.1566534,0.142017439,1.260092854,0.4938583672
1.79,3.383849859,-1.189065933,10.07150555,0.1388409436,1.263182044,0.4887794554
1.792,3.303797007,-1.200605989,9.973468781,0.1347045153,1.26600945,0.4841892421
1.794,3.216265202,-1.20761621,9.870652199,0.1292241812,1.269692063,0.4794768393
1.796,3.112644196,-1.203862071,9.786529541,0.1232202426,1.273095489,0.4743979275
1.798,3.007289886,-1.213247299,9.703086853,0.1169894189,1.275416851,0.4691794217
1.8,2.894225836,-1.217135549,9.619931221,0.1106538773,1.277633309,0.4642052054
1.802,2.780798435,-1.198068142,9.521759987,0.1039692611,1.280425906,0.4593532085
1.804,2.675731182,-1.170084715,9.410860062,0.09779080003,1.283131123,0.4545361102
1.806,2.568547249,-1.162384868,9.311337471,0.0921010226,1.28613317,0.449718982
1.808,2.454305649,-1.142110825,9.219506264,0.08475318551,1.288297296,0.4446226358
1.81,2.339968204,-1.1183604,9.144701004,0.07764969766,1.288559079,0.4400149584
1.812,2.237927198,-1.094935417,9.08307457,0.07223917544,1.288018107,0.4365592003
1.814,2.12927866,-1.076988578,9.029291153,0.06750933826,1.288122773,0.4326322079
1.816,2.021960735,-1.075724363,8.992630959,0.06211626902,1.288471818,0.4281816185
1.818,1.913819432,-1.068350196,8.983207703,0.05485569686,1.287669063,0.4229107201
1.82,1.819995522,-1.054195642,8.972615242,0.0484328866,1.286412358,0.4176049232
1.822,1.747029781,-1.02462256,8.954639435,0.04330161959,1.284946322,0.4129099846
1.824,1.693495512,-0.9866409302,8.922288895,0.03773401678,1.283707142,0.4075343907
1.826,1.657563329,-0.9753499031,8.891557693,0.0307352487,1.282258511,0.4009195864
1.828,1.625184059,-0.9879338145,8.855481148,0.02441715635,1.281036735,0.3935019374
1.83,1.589644551,-0.9892362952,8.83146286,0.02026327327,1.280548096,0.3873234689
1.832,1.560578942,-1.008112073,8.837256432,0.01572541706,1.280024409,0.381336987
1.834,1.560933352,-1.012603641,8.85258007,0.01073377486,1.279815078,0.3738495111
1.836,1.580278397,-1.017047286,8.890274048,0.006178465672,1.279099464,0.3657512069
1.838,1.603368163,-1.02372241,8.954171181,0.001151917269,1.277860284,0.3570943773
1.84,1.63342011,-1.030502677,9.035745621,-0.00432841666,1.277668238,0.3481931984
1.842,1.666010022,-1.019144654,9.116843224,-0.01068141498,1.2775985,0.3388905823
1.844,1.722676039,-1.005957365,9.193437576,-0.01832595654,1.276621103,0.329430908
1.846,1.779150367,-0.9629575014,9.247144699,-0.02584832534,1.275277138,0.3214721978
1.848,1.849903941,-0.8997122645,9.28309536,-0.03331833705,1.272519588,0.3134960532
1.85,1.934294701,-0.8332971334,9.292404175,-0.0411025025,1.267615199,0.3039316237
1.852,2.025523424,-0.7618733048,9.281591415,-0.04838052765,1.261820674,0.2953097224
1.854,2.120841265,-0.6848757267,9.266997337,-0.05607742816,1.256933808,0.2886425555
1.856,2.212270975,-0.5955815911,9.251693726,-0.06489133835,1.25211668,0.2818357646
1.858,2.270823717,-0.5168603063,9.234397888,-0.0757298395,1.243512154,0.2743133903
1.86,2.319627285,-0.4562773705,9.215886116,-0.08709193021,1.23244679,0.2674717009
1.862,2.352514029,-0.3877266049,9.210072517,-0.09613273293,1.223842263,0.2624800801
1.864,2.382144451,-0.3261381388,9.18747139,-0.1048593819,1.215918541,0.2585530877
1.866,2.404228449,-0.2715120614,9.148187637,-0.11377801,1.205429077,0.2541199327
1.868,2.415404797,-0.2234652042,9.097496986,-0.122469753,1.192635775,0.248831585
1.87,2.421993732,-0.1780807227,9.031656265,-0.1300968379,1.1811167,0.2441541106
1.872,2.4238801,-0.137666598,8.963009834,-0.1366767287,1.171377778,0.2413092256
1.874,2.439069033,-0.09300037473,8.898921967,-0.1437802166,1.161411881,0.2388832122
1.876,2.438283682,-0.03348051757,8.829920769,-0.152349785,1.151044607,0.2366317362
1.878,2.425201893,0.01852154359,8.758995056,-0.1615302265,1.138932109,0.2347816974
1.88,2.413633108,0.04314351454,8.674470901,-0.1696809083,1.125807166,0.2330712676
1.882,2.386750937,0.08289684355,8.591074944,-0.1783552021,1.112874269,0.2320589721
1.884,2.32929945,0.07807012647,8.501551628,-0.1875705272,1.100046158,0.2326000333
1.886,2.246661425,0.08259038627,8.421929359,-0.1970127672,1.086292982,0.2337694019
1.888,2.140694141,0.07835742831,8.357056618,-0.207484737,1.072487354,0.2348689586
1.89,2.027045965,0.05417599529,8.288582802,-0.218043983,1.060252666,0.2372076958
1.892,1.917257547,0.005477933213,8.211259842,-0.2283588797,1.047686219,0.2406983525
1.894,1.816145658,-0.06641515344,8.162896156,-0.2398082316,1.034055233,0.2452711165
1.896,1.714803815,-0.09194692224,8.136752129,-0.2511005104,1.02093029,0.2505943775
1.898,1.596693158,-0.08424717188,7.990878105,-0.2632654607,1.007054925,0.2568775713
1.9,1.472836256,-0.06030515209,7.85180378,-0.2751685977,0.9944711328,0.263213098
1.902,1.31590116,-0.04170699418,7.787418842,-0.2856929302,0.9833533764,0.2689552307
1.904,1.158477545,-0.04240610078,7.737446785,-0.2969154119,0.9715724587,0.2757096589
1.906,1.005756259,-0.0331357494,7.6764431,-0.3087487519,0.9598263502,0.2825513482
1.908,0.8550747633,-0.0525383614,7.59667778,-0.3201980889,0.948726058,0.2885029316
1.91,0.7255484462,-0.1004511267,7.515006542,-0.3311587572,0.9391616583,0.2947162986
1.912,0.5965393186,-0.1490917355,7.442299366,-0.3432015479,0.9302256107,0.3016627133
1.914,0.4720408022,-0.1858953983,7.346914768,-0.3556806445,0.9218479991,0.3085916638
1.916,0.3460195959,-0.2246335745,7.26068449,-0.367705971,0.9136973023,0.3148748577
1.918,0.2214540839,-0.2338177264,7.174723148,-0.3820700347,0.9047088623,0.3218561709
1.92,0.1400799602,-0.2184852809,7.074607372,-0.3989648223,0.89599967,0.3300766647
1.922,0.09322063625,-0.1923693269,6.968745708,-0.4124736488,0.8896117806,0.3368834555
1.924,0.03901591152,-0.1453663409,6.859455109,-0.4236437678,0.8841663599,0.3428175747
1.926,0.009509769268,-0.09165961295,6.73376894,-0.4370304346,0.8784765601,0.3502701223
1.928,-0.01749682613,-0.05283524469,6.601695538,-0.4519529939,0.8723679185,0.3586826026
1.93,-0.05156152695,-0.03826892003,6.461835384,-0.4668581188,0.8654738665,0.3668332994
1.932,-0.01981441304,0.006244078279,6.298168182,-0.4808207452,0.8588765264,0.374896735
1.934,-0.065103136,0.04104619101,6.153242111,-0.493771106,0.8524013758,0.3838502467
1.936,-0.118991822,0.06388688087,6.065719604,-0.5059709549,0.8459785581,0.392873615
1.938,-0.1733306348,0.07369352877,5.95309639,-0.5182057023,0.8395732045,0.4022111297
1.94,-0.25555709,0.04761588201,5.850069046,-0.5288696885,0.8338136077,0.41107741
1.942,-0.3466325104,0.009710881859,5.774737835,-0.5385736823,0.8280016184,0.4190884531
1.944,-0.4325939417,-0.04643793404,5.727313519,-0.5491504073,0.8212122917,0.4277278483
1.946,-0.5149927735,-0.09482954443,5.679218769,-0.5591336489,0.8137074113,0.4359832406
1.948,-0.5781518817,-0.1315566003,5.649788857,-0.5692042112,0.8049807549,0.4443782866
1.95,-0.6374226809,-0.1723059118,5.635290146,-0.5786638856,0.794788003,0.4531747401
1.952,-0.6770610809,-0.2116378546,5.631794453,-0.5878792405,0.7846476436,0.4608541727
1.954,-0.6809971333,-0.214415133,5.636601925,-0.5979498029,0.775467217,0.468079865
1.956,-0.6532531977,-0.2045893222,5.644866467,-0.6067811847,0.764157474,0.4757592976
1.958,-0.6274723411,-0.1763952076,5.636650085,-0.6138497591,0.7504042983,0.4832991362
1.96,-0.6353062391,-0.1491108835,5.680233955,-0.6211452484,0.7356562614,0.4901582599
1.962,-0.639931798,-0.1229278967,5.76678896,-0.6288421154,0.7204893827,0.4967381656
1.964,-0.6297899485,-0.1048756093,5.823263645,-0.6357710958,0.7061078548,0.5028991699
1.966,-0.6296080351,-0.08661264181,5.870726109,-0.6414259672,0.6936287284,0.5088682175
1.968,-0.6525349021,-0.05785349011,5.92286253,-0.6456322074,0.680346787,0.5169839859
1.97,-0.6606177092,-0.002681505866,5.954800606,-0.648599267,0.6670473814,0.5246983171
1.972,-0.6695432663,0.06981492043,5.966312408,-0.6520200968,0.6534337997,0.5335296988
1.974,-0.6655880809,0.1350617111,5.960729122,-0.6549871564,0.6403089166,0.5437573195
1.976,-0.6467217207,0.1977897882,5.932161808,-0.6618812084,0.6302384138,0.5573709011
1.978,-0.6304220557,0.2928970754,5.909598827,-0.6716201305,0.6210753918,0.5727123618
1.98,-0.6174454093,0.3815304041,5.876223087,-0.6784269214,0.6110397577,0.5833762884
1.982,-0.6091614962,0.4762833118,5.857989311,-0.6840468645,0.6003234386,0.5908637643
1.984,-0.5777974725,0.5788892508,5.849513531,-0.6875898838,0.589659512,0.5939180851
1.986,-0.5377281308,0.6609145999,5.823120117,-0.6887243986,0.5758364797,0.5923123956
1.988,-0.5082985759,0.7382281423,5.790520668,-0.6885498166,0.5629559755,0.5888217092
1.99,-0.4871338606,0.7894927859,5.760334492,-0.6865950823,0.5517160296,0.5839347839
1.992,-0.4689666331,0.8305006623,5.720542908,-0.6801024675,0.5383118987,0.5765694976
1.994,-0.4481466711,0.8617785573,5.659136295,-0.6686356068,0.5249601603,0.566952765
1.996,-0.4302380383,0.8881338835,5.60269022,-0.6541668773,0.512568295,0.5554684997
1.998,-0.4124347568,0.9204173088,5.532540321,-0.6381796598,0.5012236238,0.5451012254
2.0,-0.3926107883,0.9364393353,5.465339661,-0.6206390858,0.4915545285,0.5380501151
2.002,-0.3764163852,0.9485731125,5.403339863,-0.6005503535,0.4825660884,0.5345419645
2.004,-0.3582875133,0.9551044703,5.33771944,-0.5803743601,0.4722861052,0.5340533257
2.006,-0.3393062651,0.9606974125,5.261823177,-0.5589067936,0.4576776922,0.5357637405
2.008,-0.3189364076,0.9757425785,5.183398724,-0.5394463539,0.4425805807,0.5389751196
2.01,-0.298384577,0.9894661307,5.121944427,-0.5245761871,0.4272740483,0.5434431434
2.012,-0.2934333384,0.9841605425,5.059886932,-0.5096710324,0.4106410742,0.5477890372
2.014,-0.2968427241,0.9951834679,5.002090931,-0.4957258701,0.3978652656,0.5520825386
2.016,-0.2915658951,1.007068276,4.941651344,-0.4843637645,0.3869743943,0.5566727519
2.018,-0.301631093,1.035693407,4.884860992,-0.4762654305,0.3759264648,0.5604252219
2.02,-0.294573009,1.068991899,4.823894978,-0.4713959694,0.3632204831,0.5651201606
2.022,-0.3067547083,1.096295357,4.757249832,-0.466578871,0.3457322717,0.5708099008
2.024,-0.3285227716,1.111742854,4.679591656,-0.4608192742,0.3250501156,0.5750162005
2.026,-0.3159005344,1.160278082,4.595488071,-0.4546931684,0.3020990491,0.578943193
2.028,-0.3436828554,1.194783211,4.511049271,-0.4471533597,0.2750813365,0.585907042
2.03,-0.3465463221,1.225065231,4.459564686,-0.4409225285,0.252723664,0.5934817791
2.032,-0.3466612697,1.280102968,4.379598141,-0.4377460182,0.2385865152,0.5997126102
2.034,-0.3474848568,1.323572159,4.277337074,-0.4371002614,0.2274513096,0.6054198146
2.036,-0.3481456637,1.373601437,4.178255558,-0.4384092391,0.2200860232,0.6111968756
2.038,-0.3521104455,1.424751043,4.071253777,-0.4389328659,0.2129825205,0.61451298
2.04,-0.3425240815,1.48579371,3.969931126,-0.4401022196,0.2037671953,0.6152111292
2.042,-0.3491990864,1.54516995,3.881767035,-0.4437325001,0.1968731433,0.6189810038
2.044,-0.3448703885,1.60807991,3.788757086,-0.447100997,0.1918465942,0.6277774572
2.046,-0.3370078504,1.675835848,3.69864893,-0.4516388476,0.1835039109,0.6408150792
2.048,-0.3487872779,1.731850624,3.613013268,-0.4610461593,0.1684242785,0.6584429145
2.05,-0.3548877239,1.77593267,3.52084589,-0.4715181589,0.1537635028,0.6750758886
2.052,-0.3811856508,1.813511968,3.424407482,-0.4801924229,0.1430471838,0.6875375509
2.054,-0.4135456979,1.850104928,3.338465214,-0.4884653091,0.1301666498,0.6979746222
2.056,-0.4448235035,1.864633083,3.242496014,-0.4962494671,0.1157851443,0.7056889534
2.058,-0.4963467419,1.871327162,3.148499727,-0.5035100579,0.1007578596,0.7116754651
2.06,-0.558950305,1.875991106,3.063524723,-0.5083620548,0.08422958851,0.7172779441
2.062,-0.6209793091,1.873960853,2.977180243,-0.5106658936,0.06709045917,0.7223917842
2.064,-0.6746094227,1.846552014,2.886756182,-0.5106484294,0.04906120524,0.7269994617
2.066,-0.7243609428,1.830137372,2.782320976,-0.5087460279,0.02942625061,0.7320259809
2.068,-0.8088379502,1.798581839,2.701760769,-0.5054473281,0.008796459064,0.7378553748
2.07,-0.8970115781,1.764497876,2.643782854,-0.4996877611,-0.01347394194,0.7440338731
2.072,-0.9622296691,1.708042622,2.561949015,-0.4922875762,-0.037995819,0.7503170371
2.074,-1.022927523,1.648417473,2.485899687,-0.4845383167,-0.06314601004,0.7572983503
2.076,-1.098114967,1.595409751,2.42635107,-0.4766494036,-0.08663814515,0.7648905516
2.078,-1.178023815,1.543570518,2.373879671,-0.4690223336,-0.1078788042,0.7733379602
2.08,-1.243797421,1.505933762,2.309437513,-0.461185813,-0.1300968379,0.7821344137
2.082,-1.287103653,1.46284771,2.255136967,-0.4523195326,-0.157446146,0.7895171642
2.084,-1.320009589,1.427605033,2.180294275,-0.4417602718,-0.1856157631,0.7953465581
2.086,-1.360921741,1.392879486,2.097790003,-0.4314628541,-0.2078163475,0.8015249968
2.088,-1.398347855,1.360452414,2.012163639,-0.4247433245,-0.2222327739,0.8084539771
2.09,-1.433054209,1.341356277,1.916644692,-0.4210781455,-0.232198596,0.8153654933
2.092,-1.467521071,1.324156404,1.81554234,-0.4183030725,-0.2444508076,0.822294414
2.094,-1.506067753,1.310068846,1.709287643,-0.4168718755,-0.2645919025,0.8288917542
2.096,-1.543139696,1.313190937,1.611537099,-0.4172384143,-0.2920459509,0.8334819674
2.098,-1.579311132,1.313842177,1.5269835,-0.4176921844,-0.320582062,0.8353495002
2.1,-1.617130041,1.323974371,1.43688488,-0.4181983471,-0.346727103,0.8364141583
2.102,-1.654153943,1.338061929,1.35317409,-0.4180936217,-0.3709348142,0.8368504643
2.104,-1.696837783,1.352139711,1.266867876,-0.4167846143,-0.3949854672,0.8351400495
2.106,-1.734541655,1.360701442,1.166866779,-0.416243583,-0.4189837277,0.8312828541
2.108,-1.76682508,1.377010703,1.09158361,-0.4169766009,-0.4426504076,0.8262388706
2.11,-1.795766234,1.387870908,1.01736331,-0.4175874889,-0.4661599994,0.8210377693
2.112,-1.820340276,1.40129745,0.9384695888,-0.417517662,-0.4893030524,0.8151211143
2.114,-1.833910704,1.422232389,0.8529199958,-0.417814374,-0.5123065114,0.8082968593
2.116,-1.831947446,1.433964014,0.7799159884,-0.417290777,-0.5355542898,0.8011060953
2.118,-1.835040689,1.451767325,0.7165079117,-0.4155105352,-0.5576326847,0.7943866253
2.12,-1.832991242,1.488331556,0.6585108042,-0.4141491652,-0.5783148408,0.7872307301
2.122,-1.813358784,1.518402696,0.5891364217,-0.4129623473,-0.5987177491,0.7789579034
2.124,-1.778460979,1.527596474,0.5053489208,-0.4109028578,-0.6180734634,0.7711737156
2.126,-1.763712645,1.552888751,0.4278725982,-0.4084943235,-0.6366786361,0.763581574
2.128,-1.760561943,1.595428944,0.3493906558,-0.4065569937,-0.6549871564,0.7554482818
2.13,-1.752526879,1.618873,0.2739062607,-0.4045149684,-0.6725451946,0.7461282611
2.132,-1.736859202,1.630547166,0.190042153,-0.4014606476,-0.6875724792,0.7357086539
2.134,-1.752833366,1.650725484,0.1040424258,-0.3973940015,-0.6996850371,0.7245211005
2.136,-1.763042212,1.657276034,0.02850057743,-0.3932052255,-0.7109423876,0.7127226591
2.138,-1.788449407,1.668710709,-0.03611414135,-0.3886673748,-0.7205591798,0.7012732625
2.14,-1.814259052,1.658683896,-0.1075571105,-0.3852290809,-0.7308042645,0.6893701553
2.142,-1.824975491,1.660331011,-0.1816528738,-0.3879343271,-0.7441211343,0.6766292453
2.144,-1.858159065,1.668337107,-0.2458749413,-0.3925071061,-0.7517482042,0.6666983366
2.146,-1.908341527,1.658425212,-0.2947166562,-0.3871140182,-0.7469660044,0.6595075727
2.148,-1.954588056,1.651300073,-0.3401777744,-0.3700796068,-0.7412238717,0.6512172222
2.15,-1.982916117,1.643466234,-0.3997167647,-0.3533593714,-0.7445749044,0.6440439224
2.152,-2.019911289,1.635881305,-0.4499662817,-0.3421368897,-0.7604573965,0.6386159658
2.154,-2.076136827,1.629876733,-0.4873253703,-0.3347367048,-0.7842811346,0.6329262257
2.156,-2.127659798,1.615980864,-0.5177987814,-0.3314031065,-0.8031306863,0.629034102
2.158,-2.178005457,1.620213747,-0.5576957464,-0.3290992677,-0.8117526174,0.6283883452
2.16,-2.230696678,1.627741098,-0.5982056856,-0.3249977529,-0.8114733696,0.6294006109
2.162,-2.27777648,1.643265128,-0.6272425652,-0.3195523322,-0.8078954816,0.6310586929
2.164,-2.350531578,1.670271754,-0.6653677821,-0.3163758218,-0.8067435622,0.6330134869
2.166,-2.400704384,1.668902278,-0.6840234399,-0.3150842786,-0.8094313741,0.6341130137
2.168,-2.435908794,1.686264992,-0.7089231014,-0.3133040667,-0.8143182397,0.6332927346
2.17,-2.508788109,1.639702559,-0.7681077719,-0.3113143742,-0.819152832,0.6313903332
2.172,-2.598245144,1.618796349,-0.7631661296,-0.3095515966,-0.8226958513,0.6299765706
2.174,-2.697738409,1.602142334,-0.7568550706,-0.3075793684,-0.8244411945,0.6290864944
2.176,-2.723845005,1.583754897,-0.7689601183,-0.3048741221,-0.8254883885,0.6293657422
2.178,-2.769009352,1.562934756,-0.7609347701,-0.3009471297,-0.8274780512,0.6294704676
2.18,-2.811118364,1.547238469,-0.724581182,-0.2955540419,-0.8298691511,0.6295228004
2.182,-2.863589764,1.542526722,-0.6701179147,-0.289881736,-0.8321031928,0.6301685572
2.184,-2.98461175,1.495245934,-0.6001784801,-0.2834763825,-0.8345990181,0.6301162243
2.186,-2.971079826,1.502600908,-0.5891651511,-0.2758143842,-0.8368679285,0.6288421154
2.188,-2.987714767,1.424099803,-0.6199162602,-0.267332077,-0.8390495777,0.6264161468
2.19,-3.078148365,1.408949375,-0.4373631775,-0.2578724027,-0.8440586925,0.6238504648
2.192,-3.086374998,1.414082527,-0.3830626905,-0.2477145791,-0.8524013758,0.6212325096
2.194,-2.965487003,1.390552402,-0.3354085088,-0.2372775078,-0.8624195457,0.6176370978
2.196,-2.879611731,1.496960163,-0.1833383888,-0.2270149738,-0.8734500408,0.6130294204
2.198,-2.84720397,1.586359739,-0.03755065799,-0.2168571651,-0.8845677972,0.6076712608
2.2,-2.807632685,1.636321902,0.02732262947,-0.207030952,-0.896977067,0.6013880968
2.202,-2.742778301,1.725616097,0.1095682457,-0.1976759881,-0.9108698964,0.5944067836
2.204,-2.699251652,1.807947874,0.145308882,-0.1881814003,-0.9256877303,0.5874778032
2.206,-2.673097372,1.818080187,0.1810303777,-0.1795769334,-0.9421287179,0.580862999
2.208,-2.650735617,1.780175209,0.2050394267,-0.1716531366,-0.9592329264,0.5737420917
2.21,-2.625318766,1.750659466,0.2203335911,-0.1640085876,-0.9775589108,0.5664291382
2.212,-2.510492802,1.657754898,0.272364378,-0.1571145356,-0.997333467,0.5596747398
2.214,-2.489241838,1.434452415,0.2828892767,-0.1508313566,-1.016427398,0.5534439087
2.216,-2.587538242,1.340743423,0.3090722859,-0.146066606,-1.034299612,0.5471258163
2.218,-2.7976439,1.163553357,0.3736678362,-0.1412844062,-1.051683068,0.540127039
2.22,-2.980158806,1.013398528,0.37246117,-0.135873884,-1.067582965,0.533180654
2.222,-3.146210909,0.9041367769,0.3394020498,-0.1314581931,-1.081318736,0.5271941423
2.224,-3.335400581,0.8023353219,0.2751991153,-0.1274439394,-1.095124245,0.5209633112
2.226,-3.360329151,0.7849437594,0.231624648,-0.1229759008,-1.110203981,0.5137027502
2.228,-3.407600403,0.8176964521,0.1424933076,-0.1180017069,-1.125510454,0.5060058832
2.23,-3.524121284,0.8799074292,0.02098278515,-0.1128180847,-1.138670206,0.4971919358
2.232,-3.571650982,0.9768055677,-0.1049330756,-0.1069188714,-1.14812994,0.4866676033
2.234,-3.576362848,1.098996043,-0.3445735276,-0.1000946313,-1.155460358,0.4754276872
2.236,-3.684293509,1.159406543,-0.429893285,-0.09258971363,-1.162860513,0.4648684561
2.238,-3.711960793,1.220477819,-0.4346721172,-0.08511970937,-1.171866417,0.4542568326
2.24,-3.730405807,1.307368159,-0.456813693,-0.07860963047,-1.182163835,0.4436103404
2.242,-3.783307791,1.331272006,-0.4631343782,-0.07311183959,-1.192984939,0.4329812825
2.244,-3.791314125,1.383839011,-0.4527148008,-0.06834709644,-1.204957843,0.4223347604
2.246,-3.88145113,1.384940267,-0.4990665615,-0.06387905031,-1.217733622,0.4123165905
2.248,-3.895749331,1.404199362,-0.4878808558,-0.06017895415,-1.229881167,0.4025602043
2.25,-3.891640902,1.45170033,-0.4495065808,-0.05708971992,-1.241121054,0.3935368359
2.252,-3.867411375,1.457934856,-0.377058059,-0.05520476401,-1.252657652,0.3854385018
2.254,-3.709643126,1.476839304,-0.1594155282,-0.05600761622,-1.263967395,0.3777241409
2.256,-3.451232195,1.529291511,0.007603984792,-0.05885250121,-1.274264932,0.3704810441
2.258,-3.487815619,1.50585711,0.1525776833,-0.06223843992,-1.284126043,0.3631157577
2.26,-3.588008165,1.436990261,0.4651263356,-0.06675884128,-1.293515921,0.3553839326
2.262,-3.655467033,1.347073555,0.6407841444,-0.07333873212,-1.301753759,0.348454982
2.264,-3.677369356,1.280399919,0.7333822846,-0.08107054234,-1.310166359,0.3424685001
2.266,-3.74160099,1.296661377,0.872705698,-0.09021607041,-1.318316936,0.3368834555
2.268,-3.7330966,1.351536393,0.9395326376,-0.1005658731,-1.324163795,0.3317696452
2.27,-3.713014126,1.415375471,0.9783187509,-0.113289319,-1.32938242,0.3281044364
2.272,-3.723050833,1.438991785,0.9884988666,-0.1320516169,-1.334024906,0.3263067603
2.274,-3.745144367,1.468086123,0.9905387163,-0.1646194607,-1.338440657,0.3290294707
2.276,-3.774727106,1.481723547,1.008016348,-0.2176600099,-1.337410927,0.3342480063
2.278,-3.833749056,1.456258774,1.037340522,-0.2796366513,-1.31709528,0.3341607451
2.28,-3.926720619,1.401249647,1.068331003,-0.3373895884,-1.27442193,0.3312984109
2.282,-4.020133018,1.299266219,1.09984839,-0.3870791197,-1.21537745,0.3288549483
2.284,-4.112865448,1.179575324,1.121424913,-0.4234168828,-1.150957346,0.3269176185
2.286,-4.26389122,1.017631412,1.148316622,-0.4505043924,-1.095996976,0.3283487856
2.288,-4.348301411,0.9131006598,1.156849504,-0.4767017663,-1.061003089,0.3308097124
2.29,-4.385056973,0.8730983138,1.163783073,-0.5012410879,-1.050548553,0.3318220079
2.292,-4.440018654,0.8255686164,1.16428113,-0.520073235,-1.059240341,0.3325375915
2.294,-4.475931168,0.7936300039,1.179038882,-0.5321508646,-1.073813796,0.3318918049
2.296,-4.445218563,0.9101222754,1.206476569,-0.5408600569,-1.086066008,0.3287851214
2.298,-4.401835442,1.021289825,1.242437482,-0.5478762984,-1.096101642,0.3243694305
2.3,-4.306756973,1.370565534,1.35741663,-0.55262357,-1.106503844,0.3200410306
2.302,-4.314754009,1.404170513,1.341959596,-0.5536009669,-1.117673993,0.3167074323
2.304,-4.328745842,1.375966907,1.314703941,-0.5495867133,-1.127273202,0.3147177696
2.306,-4.346194267,1.334652424,1.23192215,-0.5419596434,-1.134655952,0.3129549921
2.308,-4.327337265,1.395829201,1.201104045,-0.5322207212,-1.139560342,0.3103544414
2.31,-4.31167984,1.432374239,1.184967041,-0.5194274187,-1.143138289,0.3067590594
2.312,-4.260319233,1.487029076,1.167288184,-0.5037893057,-1.146786094,0.3021514118
2.314,-4.218123436,1.497486949,1.164223671,-0.4851317108,-1.151446104,0.2958507538
2.316,-4.151555061,1.479942203,1.162021041,-0.4630009532,-1.158706665,0.2882236838
2.318,-4.004838467,1.476226449,1.184823394,-0.4391597509,-1.169230938,0.2788163424
2.32,-3.890156507,1.478074789,1.219232917,-0.4155803323,-1.181727529,0.2664594054
2.322,-3.836085796,1.490668297,1.244716644,-0.3939731717,-1.194695354,0.2522873282
2.324,-3.755056381,1.497027397,1.309015393,-0.3744603992,-1.208186746,0.2376789302
2.326,-3.694502115,1.490505457,1.399956822,-0.3567278385,-1.222515821,0.2225643843
2.328,-3.656041861,1.489423394,1.500254631,-0.3412991464,-1.237194061,0.20696114
2.33,-3.624122381,1.481177568,1.62110436,-0.3287153244,-1.249777913,0.1923876405
2.332,-3.582405806,1.468785286,1.740642071,-0.3188542128,-1.259010673,0.1792104095
2.334,-3.533880234,1.442918301,1.851589322,-0.3113667369,-1.266253829,0.166888386
2.336,-3.459295988,1.41445601,2.021156311,-0.3057816923,-1.272345066,0.1558928043
2.338,-3.440783978,1.397916913,2.078741789,-0.3013136387,-1.276097536,0.146660015
2.34,-3.394432068,1.368362904,2.191259623,-0.2972819209,-1.278244257,0.1381777227
2.342,-3.331809282,1.322030306,2.287247896,-0.2937389016,-1.279134393,0.1299921274
2.344,-3.263775826,1.26620698,2.373841286,-0.2910511196,-1.279169202,0.1228711754
2.346,-3.173964262,1.189621329,2.500916004,-0.2896199226,-1.279815078,0.116814889
2.348,-3.146594048,1.165018559,2.547353983,-0.2903180718,-1.28101933,0.1111949235
2.35,-3.076022387,1.074172974,2.656673431,-0.2934422195,-1.282782078,0.1066919789
2.352,-3.010028601,0.9492914081,2.7706182,-0.298486203,-1.285068512,0.1036027446
2.354,-2.980244875,0.8268519044,2.907451391,-0.3056071401,-1.288541675,0.1010894701
2.356,-2.930589199,0.674130559,3.059473515,-0.3151192069,-1.291840315,0.09911724925
2.358,-2.824459076,0.3332058489,3.042656898,-0.32688272,-1.294440866,0.09800023586
2.36,-2.841562986,0.097989887,3.046640873,-0.3392570913,-1.298036218,0.09752900153
2.362,-2.900259256,0.2089180499,3.431695461,-0.3521725237,-1.302329779,0.09766862541
2.364,-2.869163275,0.4008947015,3.732263565,-0.3659606278,-1.306920052,0.09772098809
2.366,-2.766413927,0.5960891843,3.783365488,-0.3797836304,-1.311632395,0.09679596126
2.368,-2.745603561,0.6223966479,3.760457754,-0.3936066628,-1.315437198,0.09546951205
2.37,-2.716614485,0.632691741,3.69658041,-0.4074470997,-1.317618847,0.09461429715
2.372,-2.734044075,0.6654922962,3.594012737,-0.4206592441,-1.318823099,0.09332275391
2.374,-2.799836874,0.7112215757,3.52891922,-0.4339237511,-1.318997622,0.0918392241
2.376,-2.835453033,0.7275595665,3.548379421,-0.4465774,-1.316554189,0.09124581516
2.378,-2.832465172,0.7276648879,3.554460764,-0.4564734101,-1.312068701,0.09068730474
2.38,-2.796705246,0.7393198609,3.534320593,-0.4652349651,-1.30740869,0.09014625847
2.382,-2.729389906,0.7532349825,3.535594225,-0.472268641,-1.303621292,0.09023351967
2.384,-2.64368701,0.7543076277,3.552334547,-0.4760734439,-1.301457167,0.09028588235
2.386,-2.559995413,0.7614902258,3.559028864,-0.479529202,-1.3015095,0.09028588235
2.388,-2.456412554,0.768155694,3.539175987,-0.482827872,-1.303429365,0.08998917788
2.39,-2.35088563,0.7649091482,3.517580271,-0.4832118452,-1.30674541,0.08922123164
2.392,-2.270967245,0.7736431956,3.513079166,-0.4814839661,-1.310916781,0.08861036599
2.394,-2.218706846,0.7991749048,3.520319223,-0.4785692692,-1.314843774,0.08740609139
2.396,-2.193730354,0.8259038329,3.54917407,-0.4735950828,-1.319591045,0.08595746756
2.398,-2.137093306,0.8599398136,3.556643963,-0.4668406546,-1.326258183,0.08506734669
2.4,-2.095529795,0.9054104686,3.530384541,-0.4583932757,-1.334653258,0.0843866691
2.402,-2.075849533,0.9497223496,3.520769358,-0.4483401775,-1.344374776,0.08347909898
2.404,-2.053956747,0.9988418221,3.508329153,-0.437292248,-1.354654789,0.08374089748
2.406,-2.028999805,1.035712481,3.486369371,-0.4246037006,-1.366418242,0.08541641384
2.408,-2.025475502,1.091363311,3.472502232,-0.4099603891,-1.379089355,0.08831366152
2.41,-2.016684055,1.161226034,3.441760778,-0.3954741657,-1.392144442,0.09360200912
2.412,-2.013351202,1.237256289,3.399297237,-0.3820176721,-1.405653238,0.1007927656
2.414,-1.990319014,1.297484994,3.359218359,-0.3689451516,-1.418743253,0.1087863743
2.416,-1.98138392,1.342610836,3.328629971,-0.3560646176,-1.431327105,0.1170766875
2.418,-1.950575352,1.381119132,3.313929558,-0.3429223001,-1.442444801,0.1242499873
2.42,-1.911568999,1.40301168,3.304726124,-0.3293610811,-1.452969193,0.1287354827
2.422,-1.874410868,1.417999506,3.301843405,-0.3168994188,-1.463877439,0.1311963946
2.424,-1.828269839,1.431522012,3.308202744,-0.3055198789,-1.474628687,0.1318945289
2.426,-1.782205462,1.437172294,3.321571827,-0.2945766747,-1.484681726,0.1302713752
2.428,-1.721105456,1.439729214,3.331790209,-0.2850646377,-1.490999818,0.1264665574
2.43,-1.652554631,1.454305172,3.357321978,-0.2777342498,-1.493565559,0.1223824844
2.432,-1.585564852,1.449296474,3.379109144,-0.2715732455,-1.49492681,0.119136177
2.434,-1.514552832,1.430746198,3.408280373,-0.2659183741,-1.492954612,0.1149822921
2.436,-1.445666909,1.413728237,3.456729174,-0.2607870996,-1.483302951,0.110444434
2.438,-1.38639605,1.388962626,3.520127773,-0.2567902803,-1.468327999,0.1063952744
2.44,-1.311610699,1.329615116,3.594032049,-0.2545388043,-1.454662085,0.1028522551
2.442,-1.199935555,1.29736042,3.647681236,-0.2529854774,-1.439949036,0.0992045179
2.444,-1.103391886,1.275879622,3.699855804,-0.2523571551,-1.421012163,0.09456194192
2.446,-1.016204476,1.254063725,3.77180624,-0.251152873,-1.397834182,0.08855800331
2.448,-0.9569911361,1.240110278,3.852567434,-0.2494075447,-1.373888254,0.08107054234
2.45,-0.9099690318,1.242159724,3.946458578,-0.2480636388,-1.355614662,0.07422885299
2.452,-0.8809034228,1.248528361,4.054216385,-0.2459343374,-1.337445855,0.06672393531
2.454,-0.859662056,1.252588868,4.148768425,-0.2438050359,-1.319643497,0.05955063552
2.456,-0.8501522541,1.282171607,4.225976467,-0.2410474271,-1.302609086,0.05284857005
2.458,-0.8459959626,1.309178233,4.27938652,-0.2364571989,-1.284614682,0.04506440088
2.46,-0.8347719312,1.353988171,4.320997715,-0.2314132005,-1.271611929,0.03937462717
2.462,-0.804997623,1.40774262,4.339480877,-0.2252696455,-1.263164639,0.03454006463
2.464,-0.7647750974,1.462962508,4.340639591,-0.2158274204,-1.259097934,0.02940879762
2.466,-0.7354795933,1.513920784,4.337882042,-0.2025105506,-1.261541486,0.0232128799
2.468,-0.7123036981,1.570443153,4.317023277,-0.1882512122,-1.268540144,0.0162839219
2.47,-0.6835350394,1.626046062,4.269043446,-0.1770811081,-1.275172472,0.01157153305
2.472,-0.6588460207,1.677885294,4.22623539,-0.1643227488,-1.283550024,0.008377579972
2.474,-0.6297516227,1.714018583,4.191710949,-0.1506219208,-1.293288946,0.00614355877
2.476,-0.5827391148,1.757190824,4.14828968,-0.1361880451,-1.306396365,0.003961897455
2.478,-0.5299996138,1.807651043,4.084086895,-0.1199041158,-1.323413372,0.001186823938
2.48,-0.4750383496,1.836620808,4.032438755,-0.107599549,-1.337602854,-0.001186823938
2.482,-0.4271543324,1.875675082,3.976184845,-0.09786061198,-1.352525473,-0.005009094719
2.484,-0.3802087903,1.909615278,3.908438444,-0.08726646006,-1.372806191,-0.01097812131
2.486,-0.3275172114,1.960276604,3.820791483,-0.07757988572,-1.401255012,-0.02256710641
2.488,-0.2652296722,2.01699996,3.703734398,-0.07332128286,-1.428307652,-0.03642502055
2.49,-0.1110526472,2.191422462,3.391913414,-0.07347836345,-1.443736315,-0.04461061582
2.492,0.2227565348,2.567015171,2.761778831,-0.0760788992,-1.453806877,-0.04635594413
2.494,0.6800299287,2.755036592,2.379989862,-0.08218755573,-1.462324142,-0.04263839498
2.496,1.070102811,2.822687149,2.15973258,-0.09192649275,-1.47274375,-0.03262020275
2.498,1.290752411,2.86006546,1.977390409,-0.1034631208,-1.486130357,-0.01968731359
2.5,1.380889416,2.84568119,2.143222332,-0.1129053459,-1.501681328,-0.01033234876
2.502,1.25690794,2.774822235,2.494107008,-0.1180017069,-1.517790675,-0.004939281847
2.504,1.002797008,2.673767805,2.844417095,-0.1200786531,-1.537303448,-0.003700098023
2.506,0.7275691628,2.620817661,3.242677927,-0.1218763441,-1.561650753,-0.005393067375
2.508,0.5240428448,2.599739075,3.704643965,-0.1194503307,-1.58229804,-0.007661995478
2.51,0.3712353408,2.605628967,4.140484333,-0.1121374071,-1.595422864,-0.008901178837
2.512,0.2744904459,2.602832556,4.457409859,-0.1019097716,-1.606453419,-0.008150687441
2.514,0.2116953135,2.582778454,4.664067745,-0.08670795709,-1.622318387,-0.006265731994
2.516,0.1588217616,2.496070385,4.858361721,-0.06852162629,-1.644222379,-0.005183627829
2.518,0.07879796624,2.356325388,5.079126358,-0.04375540465,-1.675882578,-0.005689773243
2.52,0.03576937318,2.204418182,5.294920921,-0.01567305624,-1.711487293,-0.007470009383
2.522,0.05353435129,2.034717083,5.440833092,0.005829399452,-1.738295555,-0.01008800324
2.524,0.1128626689,1.87135601,5.559336662,0.02342231758,-1.761194229,-0.01431170013
2.526,0.2034113705,1.729063749,5.680320263,0.04038691893,-1.787566185,-0.02012364566
2.528,0.264942348,1.589615822,5.795184612,0.0545415394,-1.814706087,-0.0265988186
2.53,0.3369120359,1.437995791,5.938702583,0.06408849359,-1.838704348,-0.03333579004
2.532,0.4535192549,1.343970656,6.089584827,0.06986553222,-1.857623696,-0.03956661373
2.534,0.6020842791,1.324970365,6.221371651,0.07253587991,-1.871638775,-0.04492477328
2.536,0.7554664016,1.332315803,6.324858189,0.07173303515,-1.880819201,-0.04963716492
2.538,0.9070193768,1.352570653,6.398197651,0.06635741889,-1.884868264,-0.05281366408
2.54,1.054540515,1.396604896,6.442806244,0.05911429971,-1.886194825,-0.05412266031
2.542,1.160728097,1.446844816,6.463195324,0.052377332,-1.887050033,-0.05496041849
2.544,1.231596589,1.485879898,6.456970215,0.0439648442,-1.886456609,-0.05593780056
2.546,1.284948826,1.519302964,6.430509567,0.03389429301,-1.884327292,-0.05600761622
2.548,1.32756567,1.532135844,6.383650303,0.02254965343,-1.881552219,-0.05604252219
2.55,1.349822164,1.53201139,6.331284523,0.01256637089,-1.878532767,-0.05731661245
2.552,1.357320786,1.518785715,6.271208763,0.00343829859,-1.874466181,-0.05815437064
2.554,1.347581148,1.524215817,6.207264423,-0.005619960371,-1.869334936,-0.05818927661
2.556,1.353873134,1.518814564,6.146232128,-0.01467821933,-1.86378479,-0.05850343779
2.558,1.35793376,1.51075089,6.093022823,-0.02689552307,-1.854569435,-0.05864306167
2.56,1.355807781,1.50604856,6.041557312,-0.03879866749,-1.844202161,-0.05838126317
2.562,1.353758335,1.497046351,5.992801666,-0.04934045672,-1.835231185,-0.05764822662
2.564,1.350559592,1.50705421,5.941431522,-0.06119124219,-1.824968576,-0.05639158934
2.566,1.352465391,1.529952407,5.898201942,-0.07454301417,-1.811320186,-0.05462880433
2.568,1.368180871,1.567656279,5.850950241,-0.086289078,-1.795647144,-0.0526391305
2.57,1.39232409,1.610454917,5.793470383,-0.0939161703,-1.78107357,-0.05120795965
2.572,1.421437502,1.652650356,5.741324425,-0.09796532989,-1.767250538,-0.05030038953
2.574,1.456565261,1.692968726,5.711942673,-0.09834930301,-1.756255031,-0.05024803057
2.576,1.492574096,1.71454525,5.690864086,-0.09409070015,-1.747353792,-0.05117305368
2.578,1.539193988,1.71674788,5.678012371,-0.08257152885,-1.735852122,-0.05438445881
2.58,1.568364859,1.704738617,5.671758175,-0.06873106211,-1.724856496,-0.05853834376
2.582,1.592297316,1.693083644,5.683748722,-0.05298819765,-1.716897845,-0.06244787946
2.584,1.631169677,1.669065118,5.703850746,-0.0317475386,-1.708939075,-0.06717772037
2.586,1.685460567,1.661978126,5.737522602,-0.008272860199,-1.700945497,-0.07227408141
2.588,1.738755465,1.654738188,5.774115086,0.02146754973,-1.693911791,-0.07780677825
2.59,1.77674675,1.610330462,5.825686455,0.05157447979,-1.688850403,-0.08258897811
2.592,1.776919127,1.552314162,5.891181946,0.07897614688,-1.685516834,-0.08580038697
2.594,1.783737659,1.503482103,5.990742683,0.1097113937,-1.683527112,-0.08836601675
2.596,1.793381572,1.459725618,6.115949631,0.1402022988,-1.68335259,-0.090373151
2.598,1.788861275,1.419263721,6.262742996,0.1725083441,-1.685813546,-0.08991936594
2.6,1.774036407,1.372002125,6.430164814,0.201114282,-1.688693285,-0.08721410483
2.602,1.747470379,1.311898112,6.610007763,0.2244493365,-1.690822601,-0.08389797807
2.604,1.7256639,1.25921607,6.789812565,0.2471909821,-1.692009449,-0.07908086479
2.606,1.694481969,1.223791361,6.95841217,0.2693915665,-1.691852331,-0.07300712168
2.608,1.679235578,1.192609429,7.117751122,0.2923251987,-1.693056583,-0.06642723083
2.61,1.666182399,1.168197989,7.271181107,0.3127106428,-1.697960973,-0.05871287733
2.612,1.635718584,1.151812077,7.430711269,0.3279473782,-1.705326319,-0.04988151044
2.614,1.617446065,1.152291059,7.578941345,0.3388905823,-1.711487293,-0.04029965401
2.616,1.587805748,1.172679901,7.726969719,0.3455402851,-1.713668942,-0.02975786291
2.618,1.558347583,1.186757922,7.870047569,0.346360594,-1.709515095,-0.01822123677
2.62,1.51635325,1.205356121,8.026762009,0.3435331583,-1.700247407,-0.00720820995
2.622,1.468076587,1.240847707,8.176447868,0.3389080465,-1.689531088,0.002635447076
2.624,1.413996339,1.278589845,8.308204651,0.3313507438,-1.679792166,0.01232202444
2.626,1.323313594,1.303556681,8.412975311,0.3210183978,-1.672357082,0.02068215236
2.628,1.242313027,1.332287073,8.506072044,0.3089232743,-1.66492188,0.02724459022
2.63,1.196133494,1.35725379,8.589839935,0.2954667807,-1.654624462,0.03275983036
2.632,1.179086924,1.382660985,8.670601845,0.2814692557,-1.64191854,0.03721041977
2.634,1.177238584,1.426130176,8.765794754,0.2675764263,-1.626960993,0.04122467712
2.636,1.236212492,1.485104084,8.861045837,0.2533869147,-1.611078501,0.04412192479
2.638,1.327671051,1.532155037,8.905549049,0.239092648,-1.596103549,0.0453087464
2.64,1.413603783,1.567838192,8.950454712,0.2257059813,-1.57990694,0.04452335089
2.642,1.520787358,1.581954479,9.01594162,0.213925004,-1.559416771,0.04199262336
2.644,1.632912636,1.575825214,9.063116074,0.2034704834,-1.535610437,0.03844960406
2.646,1.754614592,1.555895925,9.094987869,0.192579627,-1.506987095,0.03258529678
2.648,1.857871771,1.507341504,9.132250786,0.1824567169,-1.477019787,0.02546435408
2.65,1.938910723,1.416610837,9.172291756,0.1754928529,-1.454731941,0.01909390278
2.652,2.021970272,1.313506961,9.213184357,0.1698205322,-1.434608221,0.01239183731
2.654,2.121999979,1.210747838,9.256309509,0.1637293398,-1.410627484,0.005881759338
2.656,2.244525909,1.103564262,9.305582047,0.1577777565,-1.383836627,6.981316983e-05
2.658,2.379443884,0.9755318761,9.367716789,0.1515643895,-1.354619861,-0.005742133129
2.66,2.518144846,0.8473463058,9.44195652,0.1452462971,-1.325682282,-0.01127482671
2.662,2.633200407,0.7120068073,9.544015884,0.1379508227,-1.298437715,-0.01574287005
2.664,2.734637976,0.5735549331,9.641469955,0.1299223155,-1.271873832,-0.0181863308
2.666,2.813416719,0.4419217408,9.735169411,0.1234994978,-1.245920777,-0.02045525797
2.668,2.872170687,0.3102693856,9.818419456,0.1186649352,-1.220194578,-0.02326523885
2.67,2.892559528,0.2126338333,9.888915062,0.1141794398,-1.19488728,-0.02535963431
2.672,2.878864765,0.1198058575,9.939183235,0.1098335683,-1.172285318,-0.0265290048
2.674,2.819603443,0.03401681781,9.992123604,0.1074250117,-1.151707888,-0.02605776489
2.676,2.691322088,-0.04426399991,10.08098698,0.1064476296,-1.132299781,-0.02396337129
2.678,2.557697058,-0.1330697387,10.17291546,0.1041612476,-1.114602208,-0.02153736353
2.68,2.411305904,-0.1987666339,10.23594952,0.1013338193,-1.09762013,-0.01865756884
2.682,2.268534899,-0.2338177264,10.28930187,0.0995535776,-1.082505584,-0.01464331243
2.684,2.134794712,-0.2626248002,10.31619358,0.09724974632,-1.069083929,-0.009843656793
2.686,1.992962241,-0.2832723558,10.3115778,0.09442231059,-1.055103898,-0.005375613924
2.688,1.87157619,-0.2863561213,10.3028059,0.0901113525,-1.040582776,-0.001029744279
2.69,1.747231007,-0.2668194175,10.27936172,0.08456119895,-1.025817275,0.004502949305
2.692,1.633353114,-0.2174605578,10.25437546,0.07852236181,-1.010667801,0.01087340154
2.694,1.562475204,-0.1366897523,10.24483681,0.07195992768,-0.996286273,0.01788962446
2.696,1.551059604,0.00656011235,10.21512032,0.06518805027,-0.9828647375,0.02483603545
2.698,1.595974803,0.195577547,10.1803751,0.05705481395,-0.9698096514,0.03146828711
2.7,1.809642911,0.4464228451,10.13538361,0.0486946851,-0.9582031965,0.03762929887
2.702,2.198681593,0.7833732367,10.0135479,0.03993313387,-0.9452528954,0.04330161959
2.704,2.341289759,0.9984300137,9.892726898,0.03068288788,-0.9295797944,0.04907865822
2.706,2.288071632,1.061579466,9.846834183,0.02186897583,-0.9140464067,0.05426228791
2.708,2.079632282,1.063207507,9.814771652,0.01354375482,-0.8982511759,0.05859070271
2.71,1.813196063,1.053611517,9.805261612,0.004799655639,-0.8817228675,0.06129596382
2.712,1.569868565,1.06757462,9.861754417,-0.006021386012,-0.8645662665,0.06302383542
2.714,1.426264286,1.085368276,9.98217392,-0.01768018492,-0.8462228775,0.06499606371
2.716,1.371025324,1.116617322,10.12710953,-0.02905973233,-0.8274082541,0.0670555532
2.718,1.408307791,1.167776585,10.29857254,-0.04094542563,-0.8074241877,0.06885323673
2.72,1.612063885,1.232841611,10.43871021,-0.05368632823,-0.7863581181,0.0695688203
2.722,1.751866102,1.19769454,10.60062504,-0.06675884128,-0.7642098665,0.06986553222
2.724,1.690775633,1.035779595,10.9148016,-0.08028514683,-0.7390945554,0.07061602175
2.726,1.559353113,0.8239309788,11.3277626,-0.09304349869,-0.7121466994,0.07093018293
2.728,1.443282247,0.6484360099,11.7457037,-0.1045626774,-0.6853907704,0.07042403519
2.73,1.368353248,0.5497182608,12.15166473,-0.1165007278,-0.6590363383,0.06864380091
2.732,1.359466076,0.521543324,12.52648258,-0.1279850006,-0.633467257,0.06506587565
2.734,1.394000053,0.5263987184,12.83073711,-0.1389805675,-0.6088581085,0.0617322959
2.736,1.473908782,0.5423346162,13.05440426,-0.1497666985,-0.5840046406,0.05941100791
2.738,1.567656279,0.574273169,13.20803547,-0.1604655683,-0.558103919,0.0565835759
2.74,1.656002283,0.6026588678,13.28635406,-0.1714611501,-0.5324127078,0.05384340882
2.742,1.732214451,0.6020076275,13.30938625,-0.1828756034,-0.5077511668,0.05178391933
2.744,1.812937379,0.5722046494,13.28544426,-0.1944645792,-0.4847652018,0.04968952388
2.746,1.905573845,0.544288218,13.22908497,-0.2054950595,-0.4634198248,0.04726351425
2.748,1.981987238,0.4894322753,13.17671871,-0.2153561711,-0.4433659911,0.04469788074
2.75,2.062049389,0.4404756427,13.12408543,-0.2231577933,-0.4244815111,0.04237659276
2.752,2.152856588,0.407004714,13.07799149,-0.230104208,-0.40732494,0.04111995548
2.754,2.236845255,0.3925054371,13.05932617,-0.2351482064,-0.3937113583,0.04029965401
2.756,2.329290152,0.3736391366,13.06985188,-0.2368935347,-0.3837455511,0.0383797884
2.758,2.434232712,0.3600687981,13.1079483,-0.2366491854,-0.376537323,0.03570943698
2.76,2.567647219,0.3445543647,13.17514801,-0.2340312004,-0.3720169365,0.03272492439
2.762,2.695976496,0.3594367206,13.28306961,-0.2291791886,-0.3708126545,0.02993239649
2.764,2.81923008,0.3716758788,13.41331387,-0.2227738202,-0.371894747,0.02754129469
2.766,2.950298071,0.3651540577,13.54334736,-0.2145009637,-0.3751759827,0.02499311417
2.768,3.05002141,0.3697509468,13.67179203,-0.2051285505,-0.3815638721,0.02235766686
2.77,3.114023209,0.383618176,13.80866432,-0.1956339478,-0.3895400465,0.02003637888
2.772,3.200769901,0.4159398675,13.9246006,-0.1857728511,-0.3984586596,0.01781981252
2.774,3.260787725,0.4680472612,14.03088379,-0.1757546514,-0.4087212086,0.01598721556
2.776,3.288733006,0.5694369674,14.15166664,-0.165684104,-0.4207814336,0.01427679323
2.778,3.306344748,0.6798575521,14.29363251,-0.1552644968,-0.4335921407,0.01296779606
2.78,3.323707581,0.7909580469,14.44315624,-0.1437802166,-0.4460712373,0.0121125849
2.782,3.325412035,0.8852896094,14.6301527,-0.1318247169,-0.4577649534,0.01144936029
2.784,3.317587852,0.9551619887,14.82893848,-0.1200262904,-0.4675911665,0.01022762898
2.786,3.291538715,0.9861429334,15.05069923,-0.1085943878,-0.4766319692,0.00846484676
2.788,3.27319932,0.9495978355,15.31664658,-0.09826203436,-0.4859869182,0.007435102481
2.79,3.266409397,0.8853949308,15.6123209,-0.08805186301,-0.4951673746,0.00575958658
2.792,3.275344372,0.7942333221,15.91842461,-0.07822565734,-0.5023755431,0.003176499158
2.794,3.309571981,0.6667469144,16.24095154,-0.06885323673,-0.5068959594,0.0005410520826
2.796,3.346931219,0.5308998227,16.56026077,-0.05998696759,-0.5087285638,-0.001762782573
2.798,3.364667416,0.3870370686,16.864048,-0.05195845291,-0.5075766444,-0.003351032268
2.8,3.37302804,0.2281865627,17.14785767,-0.04459316283,-0.5045921206,-0.004939281847
2.802,3.370681524,0.04299986362,17.40827942,-0.03843215108,-0.5005255342,-0.006527531426
2.804,3.325555563,-0.1373026669,17.641819,-0.03340560198,-0.4935092926,-0.007819075137
2.806,3.264369726,-0.292466104,17.8475399,-0.02946115844,-0.4821297526,-0.00897099264
2.808,3.205510616,-0.4450820982,18.01546669,-0.02595304511,-0.4680275023,-0.01007054932
2.81,3.159819603,-0.5908985734,18.12890434,-0.02232276089,-0.4512374103,-0.01115265395
2.812,3.104992151,-0.7304805517,18.21640778,-0.01958259381,-0.4327369332,-0.01221730467
2.814,3.029325962,-0.9020873308,18.29667282,-0.01720894687,-0.4125783741,-0.01296779606
2.816,2.923751116,-1.055871725,18.35472679,-0.01497492474,-0.389208436,-0.0135961147
2.818,2.836353302,-1.127889276,18.39401054,-0.01375319436,-0.3632902801,-0.01384046115
2.82,2.761204004,-1.070007086,18.44311905,-0.01324704941,-0.3356966376,-0.01425934024
2.822,2.699807167,-0.9172282815,18.49325371,-0.01274090353,-0.3077364564,-0.01537635084
2.824,2.657181025,-0.7074865699,18.50859642,-0.01315978263,-0.2799333632,-0.01614429615
2.826,2.610445976,-0.5027153492,18.4834671,-0.01490511186,-0.2519033849,-0.01645845547
2.828,2.561661959,-0.330237031,18.42066193,-0.01624901593,-0.2196496874,-0.01691224054
2.83,2.524082184,-0.2170008719,18.31842041,-0.0171042271,-0.1894729435,-0.01708677411
2.832,2.511364222,-0.1413153708,18.18703461,-0.01872738265,-0.1639387757,-0.01684242673
2.834,2.546214342,-0.05838021636,18.06022072,-0.02096140385,-0.1371305138,-0.01642354764
2.836,2.604757309,0.06585970521,17.98613548,-0.02312561311,-0.1104269847,-0.01530653704
2.838,2.693831205,0.2111015469,17.93538666,-0.02527236752,-0.08410741389,-0.01391027402
2.84,2.774132729,0.3403405547,17.87185287,-0.0267908033,-0.05949827284,-0.01302015595
2.842,2.870666981,0.4836574793,17.81630898,-0.02740166895,-0.0371755138,-0.01202531811
2.844,2.958323479,0.5826816559,17.77394867,-0.02701769583,-0.01640609466,-0.01005309634
2.846,3.041775942,0.626840353,17.73063469,-0.02654645778,0.003717551241,-0.007976154797
2.848,3.091718674,0.6325289011,17.71129799,-0.0260403119,0.02263692021,-0.006195918657
2.85,3.134067297,0.6263518929,17.72793388,-0.02424262278,0.03949680179,-0.004206243437
2.852,3.191298485,0.6313509941,17.74114037,-0.02099631168,0.0542448312,-0.002757620299
2.854,3.307407618,0.6515293121,17.74234581,-0.01715658605,0.06656685472,-0.001535889693
2.856,3.417799473,0.7155789733,17.74611855,-0.01179842558,0.07567747682,0.0001919862116
2.858,3.534119368,0.8016936779,17.76723671,-0.005515240598,0.08223991096,0.001553343027
2.86,3.658052921,0.9006124735,17.78959846,-0.0007504915702,0.08773770183,0.002408554312
2.862,3.761568546,0.9882689714,17.82064629,0.003385938704,0.09218829125,0.004031710327
2.864,3.824785233,1.068014979,17.8598156,0.008552113548,0.09559167922,0.006265731994
2.866,3.859299898,1.133989692,17.87948608,0.01569050923,0.09791296721,0.008429939859
