Time (s),Acceleration x (m/s^2),Acceleration y (m/s^2),Acceleration z (m/s^2),Gyroscope x (rad/s),Gyroscope y (rad/s),Gyroscope z (rad/s)
0.0,0.00430606724694,0.00891960132867,9.75439739227295,0.006808837379978303,0.0006006153865495896,-0.000458676150020255
0.008333333333333333,-0.00305431708694,0.02960562519729,9.73792171478271,0.006064941065964841,-0.001287958798621991,-0.00048639340868216727
0.016666666666666666,0.00253179180436,0.0301206856966,9.78003120422363,0.007381063833411823,-0.0015745197432894971,-0.002375191192754904
0.025,0.00815404299647,0.03071428276598,9.75804996490479,0.006064493738125551,0.000628779680467461,-0.0018320220634534328
0.03333333333333333,-0.00288259563968,0.02386903762817,9.76172828674316,0.008439685451029064,-0.0012589005642298775,-0.00022933807501004022
0.041666666666666664,-0.00459920475259,0.02640114724636,9.77637100219727,0.009212193581855417,-4.470527802863999e-07,-0.0008878468028275085
0.05,0.00271092751063,0.00515719968826,9.73975467681885,0.007352452536747542,-0.0009446223934094856,-0.0013165700952862715
0.058333333333333334,0.01011412031949,0.02409077435732,9.76720714569092,0.00783884614048544,-0.0008297298138946727,0.00031405453940986066
0.06666666666666667,0.00286106741987,0.01374062150717,9.76538467407227,0.005950495359159285,-0.0007434486610811181,0.000657391042150143
0.075,-0.00073674280429,0.01602952182293,9.75441074371338,0.006465947067252141,-0.0034056475411758072,-0.0016299541955950947
0.08333333333333333,0.01051467936486,0.01841141842306,9.76538276672363,0.005549935645414056,0.0012573358270523422,-0.002318862474882184
0.09166666666666666,0.00858355499804,0.02436256967485,9.77269458770752,0.008897466197656854,-0.001002292184540184,-0.0018029635689870151
0.1,-0.00047924046521,0.01773189753294,9.75074100494385,0.007724400433679882,8.650469482326037e-05,0.0011715015469480443
0.10833333333333334,-0.00049354619114,0.02016386389732,9.72692966461182,0.007151725612109855,0.0011433373180489235,-0.0021476411124759
0.11666666666666667,0.01589361764491,0.01345449779183,9.74890327453613,0.007838399332794758,0.0004861698422903867,-0.0007734011610405287
0.125,0.01218844484538,0.03059270977974,9.76536178588867,0.00786745847744711,-0.0013737930787261143,-0.0016880713145650823
0.13333333333333333,0.02328933402896,0.01109412964433,9.76355743408203,0.007323841240083262,-0.0016608009611216279,-0.00246057827505689
0.14166666666666666,0.01792502403259,0.02266735956073,9.76354503631592,0.008754410754633016,-0.0003715008291673544,-5.8116862959333614e-05
0.15,0.00696686888114,0.0398484878242,9.75436019897461,0.008153570923940784,-0.0007452369321412334,-0.0023179685994265176
0.15833333333333333,0.00520726945251,0.0167090408504,9.75622749328613,0.005349209240924978,5.5211011887319054e-05,-0.0028906426407734566
0.16666666666666666,-0.00029324996285,0.02080761268735,9.76171970367432,0.006665779336211249,-0.002030960586993852,0.00014372744257087403
0.175,0.02001365460455,0.02134408429265,9.7525577545166,0.006579498118379119,0.0010002805096348153,-0.0013179112985812272
0.18333333333333332,0.00344767025672,0.02553564868867,9.75071239471436,0.007066339049956478,-0.0016026841022259443,-0.0010872321340586087
0.19166666666666668,0.0017452937318,0.02424813807011,9.73240852355957,0.006809283667520375,-0.0021181358103188014,-0.0016871770489977854
0.2,0.02205936796963,0.02292486093938,9.70860385894775,0.008697186600858631,-0.0005436160670293043,-0.0006871199432083977
0.20833333333333334,0.02027092501521,0.02371176332235,9.75254917144775,0.008354297848578468,-0.0032639322611497097,-0.0031168513877201784
0.21666666666666667,-0.00325473537669,0.01153756864369,9.73793125152588,0.007438286946888818,-0.0012893000019169468,-0.0028897490253920947
0.225,0.00233915634453,0.01952007971704,9.75805282592773,0.009584140438490539,-0.001717576486685029,-0.002060018951423118
0.23333333333333334,0.01163052301854,0.01110836490989,9.74524784088135,0.006178939444931107,-0.0011471373940515597,-0.00334753107239158
0.24166666666666667,0.00075104850112,0.03544233739376,9.76352310180664,0.0074096751300759284,-0.0010018451167751988,-0.0011735133518907396
0.25,0.00630923593417,0.02507785893977,9.76536273956299,0.006808390052139014,-0.00017479761194283503,-0.003520540575820653
0.25833333333333336,0.00632294639945,0.0127391461283,9.73425960540771,0.006292937303748764,0.0024594604756071874,-0.00149226200530543
0.26666666666666666,-0.00852618925273,0.03887570276856,9.73421096801758,0.007809787515981869,0.0017173530828396013,-0.0005753567730300797
0.275,0.00233169947751,0.02500632032752,9.79098892211914,0.008868408613450675,0.0010007275123812246,-0.0016049191809767408
0.2833333333333333,0.00225298153237,0.01468482986093,9.76721286773682,0.006151222283796972,-0.001688965320057901,-0.0014868973221624103
0.2916666666666667,0.0078753773123,0.02251000329852,9.76353931427002,0.008182182220605062,0.0002572788513001066,-0.0013179114286183795
0.3,0.00785382185131,0.01581493578851,9.74890327453613,0.008497354852048306,-0.0014015102398604244,-0.001030009475711646
0.30833333333333335,0.01346148736775,0.03487725928426,9.77448749542236,0.007867010629459038,-1.7882108670256602e-06,-0.002318862474882184
0.31666666666666665,0.00429182127118,0.05012708902359,9.75980472564697,0.007610402054713615,-0.0023465796360163196,-0.0016862827834306627
0.325,0.01366193033755,0.00863348133862,9.75991153717041,0.006437336290736646,-0.001659906825591483,-0.0012289480642704669
0.3333333333333333,0.01928406395018,0.00357642141171,9.72696495056152,0.007838399332794758,0.002319085878727437,0.0001665271508735026
0.3416666666666667,0.0062658120878,0.02810351736844,9.75986671447754,0.007266618126606093,-0.00011355138434715745,-0.0006021800587085492
0.35,-0.01384075079113,0.02147998660803,9.80200576782227,0.0064650529317221705,0.001458956497108543,-0.0009763631644290118
0.35833333333333334,-0.00298283272423,0.0200780313462,9.76721286773682,0.007037280425452909,-0.0002288909909904546,-0.0007734011610405287
0.36666666666666664,-0.00479934504256,0.03159407898784,9.75253772735596,0.005692992648883893,-0.0008605763843654778,-0.002088630118050246
0.375,0.00076535419794,0.03022791445255,9.75436782836914,0.006636721752004897,-0.0007470251381827727,-0.003033253096626917
0.38333333333333336,0.00997106265277,0.03260980919003,9.75618457794189,0.007094502498632685,0.00036814788594827957,-0.003263932001075231
0.39166666666666666,-0.01019280124456,0.03321780264378,9.76901626586914,0.007352452536747542,-2.682316376861738e-05,-8.717528021622509e-05
0.4,0.02277488075197,0.03567118942738,9.7726583480835,0.007352452536747542,-0.0014032985109203653,-0.0017443996423263464
0.4083333333333333,-0.00273955031298,0.01426276937127,9.76174831390381,0.005464549083260679,-0.0015150615510615309,-5.588159321645915e-05
0.4166666666666667,-0.01910524442792,0.03847514092922,9.75617027282715,0.006408277666233074,-0.0010608560461822767,-0.0024315201707019287
0.425,0.0029539570678,0.02248142287135,9.74156284332275,0.00838290914524275,-0.0020618070924460813,-0.0022298988504599673
0.43333333333333335,0.01592938043177,0.03047111071646,9.73421096801758,0.006693944865482067,0.0008849409923919949,-0.002120371279181054
0.44166666666666665,0.01587929204106,0.0164658408612,9.76356506347656,0.007495063252675306,0.00037351256909147365,-0.0001452921472392088
0.45,0.01217413879931,0.01516402699053,9.74160003662109,0.006722107794009666,0.0021429471610175978,-0.002465942828162932
0.4583333333333333,-0.00629459600896,0.00113016739488,9.76363658905029,0.00709539715431144,-0.0013724517453940067,-0.0007425545255511476
0.4666666666666667,0.01026432961226,0.03089312836528,9.73238658905029,0.0066371680395469704,-0.0001439509601988535,-0.0013742398864167954
0.475,0.0011442193063,0.03156550228596,9.76900863647461,0.0071807852769108175,-0.0003160663118431806,-0.0018324692612555701
0.48333333333333334,-0.00248918938451,0.03037097118795,9.78183460235596,0.006064046930434871,0.0021156769376111206,-0.0016648244409696918
0.49166666666666664,0.03760264068842,0.03257403895259,9.74336051940918,0.005521323828601167,-0.0004305117910838076,-0.0014591799009537958
0.5,0.02114366926253,0.03864679858088,9.77813529968262,0.008553682789698112,0.0004571114453519202,-0.001747976054409425
0.5083333333333333,0.02296062558889,0.01721689291298,9.73793792724609,0.006923505710406374,-0.0012602416374878555,-0.0019442323013967356
0.5166666666666667,0.00107296276838,0.03419774770737,9.73055744171143,0.00783884614048544,-0.00016943299381821697,-0.0002588435397136664
0.525,-0.01354014314711,0.01109405979514,9.7471227645874,0.006035882441461271,-3.0399588042646364e-05,-0.0017466351111885992
0.5333333333333333,0.01390512660146,0.02624378167093,9.74522590637207,0.006752061074191989,-0.0012298419397263076,-0.0009428341873681208
0.5416666666666666,0.01401241961867,0.02310368232429,9.73974704742432,0.005893719053372796,-0.0011708310753376313,-8.494001453700071e-05
0.55,0.00861202273518,0.03092174045742,9.74521160125732,0.005435043651066429,8.650470295056056e-05,-0.0005167929438973624
0.5583333333333333,0.02509932592511,0.02043567225337,9.75257968902588,0.006380112657110867,-0.0021440648304301485,-0.00013948044509500516
0.5666666666666667,0.02160873822868,0.02286763861775,9.77271461486816,0.00861135427131179,-0.0006848847994390253,-0.0005154518381301835
0.575,-0.01863325387239,0.04725887253881,9.75613307952881,0.007067233185486448,-0.003204026481007975,-0.0007666954046395309
0.5833333333333334,-0.00186689198017,0.01666612364352,9.74345207214355,0.007552732133545765,5.655217048212366e-05,-0.0013183583663462124
0.5916666666666667,-0.00554345315322,0.03757388517261,9.77815055847168,0.006551334149554302,-0.0008033537260183406,-0.0019165150102254485
0.6,0.01466329675168,0.02891895733774,9.76719188690186,0.0076966832725457466,-0.0027449034907878387,-0.00045331146687706085
0.6083333333333333,0.00574354734272,0.01308255828917,9.7709321975708,0.008324791896235436,-0.00046046432355241907,-0.0024900837072511406
0.6166666666666667,0.01127288024873,0.02112949825823,9.7800464630127,0.007352452536747542,-0.0010317976167344349,-0.0018879037135611679
0.625,0.00404860405251,0.01997788436711,9.79654216766357,0.005979106135674957,-0.0005722274937307369,-0.0008873997350625233
0.6333333333333333,-0.014255521819,0.05143605917692,9.77076244354248,0.007439181082418963,-0.002804361683015804,-0.0013974867600123604
0.6416666666666667,0.00428455276415,0.02814643643796,9.74705791473389,0.008010513920470946,-0.0008601294466376447,-0.002002796228057405
0.65,-0.00294000422582,0.01237447373569,9.75997447967529,0.007267513302433456,-0.002232134709433676,-0.0014274395200459008
0.6583333333333333,0.00271092751063,0.0330318287015,9.74338054656982,0.006779777715177516,0.00020050314693540301,-0.000775189432100644
0.6666666666666666,0.01367623545229,0.02247423306108,9.71961879730225,0.006980951447505884,-0.0012571122931697622,-0.00031338393776247014
0.675,0.01196656841785,0.01771049760282,9.75077629089355,0.007382405296781083,-0.0030640994720419934,-0.002111430313992108
0.6833333333333333,-0.01889781095088,0.02210228517652,9.78007507324219,0.006408723953775146,-0.0006553793022261983,-0.00011489254700561215
0.6916666666666667,0.01411252189428,0.02082906290889,9.78189086914062,0.0052338693985892765,0.002318191743197467,-0.0004086061858019487
0.7,0.01026432961226,0.01761029846966,9.78558254241943,0.006207997549286068,-0.0009446223934094856,-0.001286617725364013
0.7083333333333334,-0.00250324583612,0.03258112445474,9.7543830871582,0.007610402054713615,-0.002381002813625931,-0.003657785438270853
0.7166666666666667,-0.00595116522163,0.02041421458125,9.75994682312012,0.006665779336211249,-5.7222743683963555e-05,-0.0010322447495181707
0.725,0.00501414295286,0.0337542667985,9.75436782836914,0.00866902263203364,-0.00014171570264692932,-0.0009464105994510249
0.7333333333333333,0.00321162655018,0.0179607886821,9.75079154968262,0.008925183878939771,0.0014039688524936263,-0.0007506014852472754
0.7416666666666667,0.00495002185926,-0.00513574294746,9.74725914001465,0.007437840659346746,-3.0846641584768984e-05,-0.0019196446146176715
0.75,-0.0060225543566,-0.01183792483062,9.75280952453613,0.007751671827420727,0.0017432823630252525,-0.0020103962500256996
0.7583333333333333,0.00846896599978,-0.0169665440917,9.70522785186768,0.00511942421193233,0.0014558272828276016,-0.0019518320632907263
0.7666666666666667,0.00283276312985,-0.0297986343503,9.63206100463867,0.0066344866732541,0.0030813109308096475,-0.004045379926756159
0.775,-0.06887442618608,-0.03570669144392,9.48564338684082,0.006861140927519982,0.006740436792152717,-0.005114729350213788
0.7833333333333333,-0.01442711055279,-0.05116399377584,9.55712890625,0.007429793439576313,0.012434102513390067,-0.005331998562380412
0.7916666666666666,0.08345936983824,-0.02026400342584,9.70341110229492,0.007829458497642963,0.014410522783608467,-0.0045085273070846
0.8,0.10066898167133,-0.0521873421967,9.765869140625,0.007802188664348117,0.01294374312076068,-0.0070786338036061625
0.8083333333333333,0.52938157320023,0.38333514332771,10.11844062805176,0.0066367212318562884,0.0001987149408940382,-0.011045332664535638
0.8166666666666667,-0.55511784553528,0.71086382865906,10.81595706939697,0.015815161327489592,0.008973912444807046,0.011930720334581162
0.825,0.22023603320122,-0.43804010748863,10.01375102996826,0.0018447633647194939,-0.022160852107362544,0.003760384499489102
0.8333333333333334,-0.38499465584755,0.22403420507908,9.40898704528809,0.00404157972071637,-0.011726640011594366,0.0006944963662755364
0.8416666666666667,-0.74970376491547,-0.21297590434551,9.53093433380127,0.009957876606482993,-0.0035482572168061793,-0.0020792422151332925
0.85,0.47192311286926,-0.14144746959209,9.74990463256836,0.003145686348304191,0.001514391079451293,-0.001035821161601075
0.8583333333333333,0.4639977812767,0.2137555629015,9.70548534393311,0.004495338938053553,-0.005827333001270101,0.002192123314798465
0.8666666666666667,0.03624345362186,-0.00849042460322,9.63015174865723,0.017198341658946723,-0.0039841337235425565,0.0032999197858252266
0.875,0.20576597750187,-0.6040004491806,9.61025333404541,0.01018363672521873,0.0013454050558701094,-0.0015517199374590917
0.8833333333333333,0.22876958549023,-0.07840241491795,9.49322414398193,0.002602517479077024,-0.001342052307706763,-0.008036219666774017
0.8916666666666667,-0.52618497610092,0.36485919356346,9.35681343078613,0.007978326601835218,0.0034890226884979453,-0.01028534243112992
0.9,-0.34494584798813,0.23923398554325,9.6084566116333,0.008427614361299112,0.016040474118385863,-0.004634595735483427
0.9083333333333333,0.15741986036301,0.24582909047604,10.0953426361084,0.007457956888252696,0.012718873496514477,0.0030446526744492388
0.9166666666666666,0.14171212911606,0.25527781248093,10.31319808959961,0.009925687727401265,0.002394637730273354,0.003796148100170756
0.925,-0.01159475836903,-0.24259582161903,10.25261306762695,0.011535525954164886,-0.007704506828396447,0.003688408409840677
0.9333333333333333,0.13548204302788,-0.22070823609829,10.07484531402588,0.0031251217512617336,-0.011079755061922164,-0.002393073123132971
0.9416666666666667,-0.02909057587385,0.21746058762074,9.632248878479,0.005106460026969625,-0.0205514622487356,-0.003160215920630367
0.95,-0.33878010511398,0.13046786189079,9.25394058227539,0.010221637745320094,-0.011349329382076289,0.000696284637335652
0.9583333333333334,-0.10119114071131,-0.20312641561031,9.30756378173828,0.010557820221050649,-0.0005315456599944879,0.0014290039971491324
0.9666666666666667,0.23389802873135,-0.09413137286901,9.50987720489502,0.009120993838385185,0.007096738097532091,-0.0013447345842596966
0.975,0.18032316863537,-0.10692784935236,9.67116546630859,0.007376145827922158,0.005650522511578152,-0.005116070813583223
0.9833333333333333,0.1451028585434,-0.08345912396908,9.79553985595703,0.00783213882363844,0.006841024178465423,-0.008153346219723832
0.9916666666666667,0.15503786504269,0.25467696785927,9.86623859405518,0.0034009534596801784,0.0029252894823028007,-0.006249797214981396
1.0,-0.09452482312918,0.42626652121544,9.80823612213135,0.010184531380897482,0.0005523336283729972,0.00031047812732695653
1.0083333333333333,-0.36497393250465,0.03071429021657,9.75274562835693,0.011098755051824236,0.0027630093451597674,0.002161723356962787
1.0166666666666666,-0.18185414373875,-0.09166377782822,9.87449359893799,0.007264830375694761,0.0025019306129129273,0.0020486193736007955
1.025,0.01367623545229,0.04950482770801,10.01434516906738,0.006638062175076939,-0.0016326364721480284,-0.001654542012411311
1.0333333333333334,0.05975484848022,-0.05047761276364,10.0279426574707,0.006238397117010464,-0.002865160818464422,-0.002078348079603322
1.0416666666666667,0.18075948953629,-0.00663783820346,9.92502021789551,0.006326912893444609,-0.006588663137599254,-0.00315127456532979
1.05,0.16638942062855,0.10171339660883,9.67326736450195,0.0074204042362878385,-0.013468804055021308,0.0003668067476717254
1.0583333333333333,-0.02090770378709,-0.12734211981297,9.38952350616455,0.011765757270699432,-0.00943773107696881,-0.0012240303188552804
1.0666666666666667,-0.16106057167053,-0.23572194576263,9.26416206359863,0.007810234843821332,-0.0010385035031727592,-0.003460634795679093
1.075,-0.00016451538249,0.032152030617,9.44499969482422,0.005227164162336888,0.00842314420379752,-0.0050722602532054396
1.0833333333333333,0.05030594393611,0.18668204545975,9.69090747833252,0.007372122998259854,0.009255108966405837,-0.004904615302882235
1.0916666666666666,0.06435412913561,0.16010208427906,9.94199371337891,0.008060582909410438,0.00787058665143066,-0.0007787657791649722
1.1,0.13887248933315,0.13851483166218,10.11061668395996,0.006690367803213228,0.0046097851650077175,-0.0004215707608762854
1.1083333333333334,0.03969827666879,0.07638520747423,10.08005809783936,0.00961409267837547,-0.0011542902182175424,0.0025493182355593746
1.1166666666666667,-0.15953700244427,-0.10213544219732,9.92049980163574,0.007901433026845563,-0.006553346084533975,-0.0017475289866442651
1.125,-0.19576616585255,-0.04608576744795,9.76806545257568,0.00463929007705336,-0.006065164729884573,-0.0007765306353955997
1.1333333333333333,-0.10945995897055,0.09143479168415,9.73023414611816,0.007184360778733656,-0.004177707824014086,-0.001471697538300125
1.1416666666666666,0.0118737667799,0.00428453879431,9.72361850738525,0.009558211028267736,-0.0030560527724201696,-0.0005619453252466606
1.15,0.12217781692743,-0.11026110500097,9.70808982849121,0.007583131701270162,-0.002347026703781304,-0.0015655786480633987
1.1583333333333334,0.21564397215843,-0.04547064751387,9.69831848144531,0.007470922113512619,-0.004403469763270127,-0.0008122948862631899
1.1666666666666667,0.10971745848656,-0.03697304427624,9.57744216918945,0.008985090439304243,-0.0032979078508455534,-0.0034217417206423672
1.175,-0.04216550290585,0.03625788167119,9.52560710906982,0.006262538256173152,0.0014433097755184245,-0.004643983898474685
1.1833333333333333,-0.09378088265657,0.18360637128353,9.57740688323975,0.007002856987768992,0.006496793442667219,-0.0008619175876604335
1.1916666666666667,-0.08867378532887,0.16008780896664,9.74607849121094,0.00694339931568981,0.009387883151205836,-0.0005883213481044165
1.2,-0.03779571503401,0.00137326517142,9.93978404998779,0.00917642712035624,0.00800067946993779,0.0022497927158177063
1.2083333333333333,0.0440329015255,-0.02005657181144,10.09743213653564,0.006464158796192201,0.0010306800123404606,-0.0010648795910489165
1.2166666666666666,0.0659062936902,-0.01025002356619,10.10467147827148,0.008441473201940572,-0.001971949852642503,-0.001080079504948354
1.225,-0.02923366986215,0.00524303410202,9.9415864944458,0.006929094707654886,-0.0063526191598962875,-0.0014314629998939648
1.2333333333333334,-0.07087749987841,-0.0127177843824,9.73302459716797,0.007332335267544375,-0.009352790802357507,-0.0006732614276599933
1.2416666666666667,-0.06661442667246,0.03044250048697,9.58611869812012,0.009132617080127066,-0.006656168029449043,0.00045800551586331457
1.25,-0.0421230904758,-0.07009071111679,9.52481842041016,0.009130380440930442,-0.004318529228584517,-0.0012700767382067722
1.2583333333333333,0.06996885687113,-0.07030535489321,9.59618854522705,0.00863683531339791,0.0023374151369447934,-0.003361836460649416
1.2666666666666666,0.1482140570879,0.11993887275457,9.67671680450439,0.005832026302542818,0.0036521972212452537,-0.0031673684847220458
1.275,0.12779983878136,0.12655524909496,9.74808788299561,0.008552341846477287,0.0020638187673514496,-0.0007282488122004312
1.2833333333333334,0.01974902674556,0.04288130253553,9.75445461273193,0.007779387948257647,0.002379438206485548,-0.00041486490694733633
1.2916666666666667,-0.06100659817457,0.05089247599244,9.77639865875244,0.00732026469796303,0.003318248783968278,-0.0014779563569732898
1.3,-0.11610494554043,-0.0051786582917,9.7971134185791,0.0074642158369630125,0.0028694078321950655,0.000269349258334923
1.3083333333333333,-0.12351532280445,-0.05683648958802,9.88187313079834,0.008065948242739391,0.002007937377318019,-0.0004130767334151723
1.3166666666666667,-0.02487747371197,-0.00034334164229,9.95086479187012,0.006980951447505884,-0.00031248983474170045,-0.0008873996700439472
1.325,0.08126346021891,0.04630749672651,9.95950317382812,0.008242087740672319,-0.0027663622233604405,0.00021167946720422468
1.3333333333333333,0.07064148038626,-0.0381175018847,9.87613773345947,0.009219791913340557,-0.008385814695603785,-0.002162840896338185
1.3416666666666666,0.03645804151893,-0.05032024905086,9.6913366317749,0.008616718564343527,-0.0064473944051895325,-0.003546022138055383
1.35,0.00563644012436,0.02021393366158,9.5441312789917,0.007129820071846572,-0.0065824041888889375,-0.0015709433312064184
1.3583333333333334,-0.03241668269038,0.06232272088528,9.49610710144043,0.008242534548363,-0.0037279724766364247,-0.0030734876350332514
1.3666666666666667,-0.00281106727198,0.08216470479965,9.57462406158447,0.0076059324173606314,0.003868123929745051,-0.00033797188461566426
1.375,0.05181524902582,0.12638363242149,9.70597171783447,0.0063166321553693805,0.005007215144323571,-0.001088126464644482
1.3833333333333333,0.07551971822977,0.01871898956597,9.86092376708984,0.008146865167539786,0.0070497983228735425,0.0006462147381360963
1.3916666666666666,0.02203080244362,-0.04565658047795,9.95320892333984,0.00743560506044734,0.0031582042457248246,0.0006958376345892428
1.4,-0.03322495520115,-0.01788210682571,9.93464088439941,0.007350216937848138,0.0018836565697935466,-0.0021011477553965754
1.4083333333333334,-0.06826673448086,0.01509249862283,9.88670253753662,0.004978602807362073,-0.0008851643962374226,-0.0005690980843940673
1.4166666666666667,-0.11949521303177,0.0016093152808,9.79714298248291,0.007755246809094959,-0.0030967341185171855,-0.002588882302355297
1.425,-0.07163572311401,0.00212439429015,9.77697086334229,0.007411910728975509,-0.0021145592681985704,-0.0008207887836871506
1.4333333333333333,0.03288161754608,0.00999252125621,9.75120639801025,0.008327474822974305,-0.002318862474882184,-0.0017068473804731199
1.4416666666666667,0.05873914808035,-0.01139447838068,9.73861026763916,0.00907271156005981,-0.0040091687381609105,-0.0022701336489404315
1.45,0.10471066832542,0.02882581949234,9.65757656097412,0.005210175067117445,-0.003727078601180758,-0.0022129110556120455
1.4583333333333333,0.05899664759636,0.12561823427677,9.60524559020996,0.007324735375613233,-0.0006290031493312902,-0.0012293950019984744
1.4666666666666666,-0.00124459469225,0.05813830718398,9.58956623077393,0.0064927706130050895,0.0010320212806541667,-0.0007805541152436636
1.475,-0.04150789231062,0.0168735794723,9.62667369842529,0.006862929198580097,0.0032426969324225352,0.0004656054077944572
1.4833333333333334,-0.03436940908432,0.02255291305482,9.75479698181152,0.007892939519533057,0.002577929532223655,-0.0009325520188840445
1.4916666666666667,-0.02342556044459,-0.01744578406215,9.88161659240723,0.005771897118555829,0.006414312430875051,-9.566928329543756e-05
1.5,0.00359810143709,-0.04171531274915,9.95512771606445,0.007092267940030498,0.002343226757815821,-0.0017041649738830339
1.5083333333333333,0.01612985692918,0.00487104710191,9.97108554840088,0.00784018812400348,-0.0015812254996904946,-0.002739986525595565
1.5166666666666666,-0.01493503432721,0.01145878899843,9.85748386383057,0.007844210953665784,-0.005092824330099289,-0.0014323568753496312
1.525,-0.07499040663242,0.00337614188902,9.74775123596191,0.00804493683800608,-0.005234540390348299,-0.0011739604196557246
1.5333333333333334,-0.05085671320558,0.02701628766954,9.67421340942383,0.006697967174995587,-0.0038723706834013906,-0.002926854089443184
1.5416666666666667,-0.00489267054945,0.07667135447264,9.63698101043701,0.008899701796556433,-0.00248918957172117,-0.0015906136626817526
1.55,0.05212276801467,0.05760184302926,9.65731048583984,0.007183467683500903,-0.002166417698532546,6.683439179365124e-05
1.5583333333333333,0.07429657876492,0.05682218447328,9.69210910797119,0.007522780413809441,0.0013811695668118295,-1.1176319252865524e-05
1.5666666666666667,0.06871736049652,0.05419709160924,9.72877502441406,0.00889657258227549,-3.6658321378984365e-05,-0.002950100833001423
1.575,0.00292551284656,-0.00202425452881,9.72766590118408,0.007837058389574105,0.001552390669143809,-0.00012696297029502894
1.5833333333333333,-0.06491217017174,-0.01808239333332,9.72242164611816,0.0077525649226534805,0.0006614144569796308,-0.000865046996997103
1.5916666666666666,-0.07049126923084,0.02388334274292,9.80982398986816,0.009151839693651478,0.0024044727009551185,-0.0015056733880704474
1.6,-0.04499853402376,0.01995643228292,9.87212467193604,0.00763722508031778,0.000628779680467461,-0.0014658859174292724
1.6083333333333334,-0.00103017280344,-0.01218125130981,9.87981986999512,0.008584083397719726,-0.0020349840668419158,-0.002107853511797573
1.6166666666666667,0.01735279709101,0.03459114953876,9.89939880371094,0.0064972412906552915,-0.00341280036534179,-0.002413190652410268
1.625,0.03229498490691,0.00856916978955,9.82278347015381,0.007987268477284228,-0.005235882373866342,-0.0014010633021324169
1.6333333333333333,0.02157297357917,0.04813148081303,9.71426200866699,0.0075563086756659965,-0.0036354325701682807,-0.001725623576418309
1.6416666666666666,-0.01304678525776,0.0714068338275,9.62975788116455,0.0075263559156324555,-0.0023532853924173166,-0.002448954773240706
1.65,-0.01459895260632,0.03355398774147,9.63024425506592,0.008527307091933238,-0.0018847742392060969,-0.0009929040865676764
1.6583333333333334,0.02773872576654,0.01081509888172,9.6524829864502,0.007206265798848156,0.0020030197619399846,-0.0012459358591185633
1.6666666666666667,0.01296089682728,0.02336830459535,9.7329158782959,0.0071463613190781185,0.00452305557903908,-0.0008905290793804421
1.675,0.03831038624048,0.01020691450685,9.79899978637695,0.005057730420804959,0.003993297962539603,-0.0026885750329894223
1.6833333333333333,0.00507829803973,-6.441285223e-05,9.82846260070801,0.00803644333069375,0.0013623931107923357,-0.0030448758182203624
1.6916666666666667,-0.0317087136209,0.0245413761586,9.84649467468262,0.00846606114879394,0.0013127704093949173,-0.0021007009477058943
1.7,-0.05377522483468,0.01760313473642,9.82645320892334,0.008066842378269361,0.0005103106888695694,-0.0021235004934619956
1.7083333333333333,-0.04654354974627,0.02305361256003,9.77145576477051,0.006666673991889829,-0.0012392302327545433,-0.002541047611943689
1.7166666666666666,-0.03363982215524,0.03299606591463,9.78779983520508,0.007126691377714415,-0.002868737620658957,-0.0024158730590005282
1.725,0.02144429460168,0.05349609255791,9.76003360748291,0.008242982396350898,-0.0032576735725136975,-0.0009262933302480323
1.7333333333333334,0.04003446176648,0.04290990531445,9.73635673522949,0.00821437057953801,-0.0031190869866197573,-0.0015280261261358676
1.7416666666666667,0.0476022772491,0.03763821348548,9.70163536071777,0.005667511606797772,-0.0020747717975573956,0.0010695736725445458
1.75,0.02217381261289,0.01190948393196,9.66537952423096,0.0065522288052328815,-0.0004474998134968329,0.00037127729528477454
1.7583333333333333,-0.01984924450517,-0.0039984495379,9.67660808563232,0.008123171356216386,0.0008295063450306689,-0.0014685680639450543
1.7666666666666666,-0.03088582493365,-0.00495690479875,9.69496440887451,0.007894728310741957,0.0008250358624361959,-0.002155241394518499
1.775,-0.00346901686862,0.01329724024981,9.77344512939453,0.006800343352517189,0.006347925338475139,-0.0018485631806478256
1.7833333333333334,-0.00761777767912,0.02604350075126,9.86300468444824,0.00754960239911639,0.0018309042640037305,-0.0013889927325512474
1.7916666666666667,0.01602236740291,0.02851123176515,9.85931396484375,0.009526916804864758,-0.0009839630563599799,-0.003402070999055576
1.8,-0.00585817825049,0.02748122252524,9.86483573913574,0.008754858082472308,-0.0003455718090561822,-0.001917856473594883
1.8083333333333333,-0.03156549483538,0.04349643737078,9.78406620025635,0.008043148566946138,-0.00358089238342998,-0.0021243944989548136
1.8166666666666667,-0.03864663466811,0.0488109588623,9.72540664672852,0.007583578508960842,-0.0020962301400183664,-0.002592458584401223
1.825,-0.0128536587581,0.05114997923374,9.71253776550293,0.008582741934350293,-0.00025660826590714187,-0.001489579728752496
1.8333333333333333,0.02017828635871,0.02240268886089,9.69643783569336,0.008154911867161609,-0.0013165702253234237,-0.0015964251535156274
1.8416666666666666,0.02580039203167,0.0176674798131,9.70200252532959,0.006499028521418015,-0.003430235227954697,-0.0007510485530122605
1.85,0.02433383092284,-0.00525734107941,9.72797203063965,0.007895174598283854,0.00013880985970204042,-0.002007266775670628
1.8583333333333334,0.03342516347766,0.00796110741794,9.70947551727295,0.00820945205389991,0.000633250163061934,-0.0009526692880870374
1.8666666666666667,-0.99367398023605,-0.11668760329485,9.76877689361572,0.0031805568537530923,0.006558487753943199,-0.1841102017563327
1.875,0.13974736630917,6.10027599334717,9.81398582458496,-0.0502036200549229,0.003730881928112548,-0.5995224356412043
1.8833333333333333,1.18026745319366,13.47861194610596,10.27431678771973,-0.029451840238537492,0.02400204101055642,-0.21578121251934115
1.8916666666666666,0.19351993501186,12.27899837493896,10.05293273925781,0.07695408700292754,-0.0066145920276734485,0.03751018702889974
1.9,0.11898405104876,3.0756504535675,9.71030902862549,0.09386253005335428,0.004924509948463061,0.16220215645722977
1.9083333333333334,-0.27387225627899,-0.90929019451141,9.76009845733643,-0.019556326334346282,-0.008508755990316455,0.1362060340491791
1.9166666666666667,0.22006522119045,1.48489999771118,9.27058696746826,-0.12330968479284889,-0.02262355346022322,0.11196147269007369
1.925,-1.00149691104889,3.06627583503723,8.90073108673096,-0.16550026508545437,-0.02068557529616164,0.16217755550666016
1.9333333333333333,-1.73003375530243,10.97859382629395,9.82754898071289,0.013119886259734218,0.02893393654970654,0.34784941828145854
1.9416666666666667,1.40878045558929,-8.60330009460449,10.49058151245117,0.19373641389826277,0.019847137283599107,0.34615464914275934
1.95,-0.56660681962967,-9.5293025970459,10.18265914916992,0.008253711502562981,0.0017361292787847907,0.256377374912073
1.9583333333333333,-0.07247517257929,-3.7366738319397,9.92241859436035,0.004428728701882518,0.005819957293407474,0.1666217222204868
1.9666666666666666,1.14957022666931,-7.94431400299072,9.88416004180908,0.08674588950801171,-0.008736750667654378,0.03477466493917055
1.975,0.43376475572586,-8.72704982757568,9.67571544647217,-0.004070415201448817,-0.020384712994388366,-0.09395126325192432
1.9833333333333334,-0.14253731071949,-1.69359743595123,9.53673362731934,-0.09550298735057262,-0.01816017869703444,-0.15015699509718092
1.9916666666666667,-0.01206939574331,2.97628903388977,9.41084766387939,0.008040913488195342,-0.006822471516402814,-0.11357463258611868
2.0,-0.05893371626735,-2.55759048461914,9.75969409942627,0.0602584596519227,-0.0020005610192694563,-0.11726683912140452
2.0083333333333333,0.15945442020893,-1.72361946105957,9.71645832061768,-0.029935549355090692,-0.006314620740538316,-0.13744952221878595
2.0166666666666666,-0.05228699743748,2.46064925193787,9.50946235656738,-0.03512404046526998,-0.005519761302055218,-0.157395217268664
2.025,-0.37916830182076,2.48788952827454,9.67640781402588,-0.0012450419836627226,0.004593243397627564,-0.12609749014432226
2.033333333333333,0.17575304210186,1.40771353244781,9.91119194030762,-0.031768463733553964,0.00787505784922947,-0.10287309425266361
2.0416666666666665,0.30588984489441,4.1428074836731,9.89028644561768,-0.039433621836695784,-0.007669189775331168,-0.052346295438270435
2.05,-0.31664937734604,3.3329746723175,9.92258834838867,0.012516806148804748,-0.013245279535184978,0.016620749872184423
2.058333333333333,-0.06655342876911,0.20541355013847,9.81301021575928,0.024732970538863776,-0.006845271712344675,0.044095718351474834
2.066666666666667,-0.14572842419147,-0.02188766747713,9.68074607849121,-0.013209961441822309,-0.006662874305998648,0.037878111055872556
2.075,-0.42555996775627,0.39313670992851,9.6826753616333,-0.013203701972963382,0.0005666392767051375,0.02830089691681092
2.0833333333333335,-0.06014363095164,0.1065314784646,9.64406299591064,0.001449121396389452,0.0033642949432454656,0.043837316824331646
2.091666666666667,-0.10713479667902,-0.61010789871216,9.75283145904541,-0.005559994800164162,0.0042025196948614904,0.04692600944471344
2.1,0.00436654686928,-0.21178257465363,9.8168249130249,-0.0015955312780597869,0.00942946071342743,0.04045044586921248
2.1083333333333334,0.08500000834465,-0.58010721206665,9.86030578613281,0.013077409880644823,0.008686904822486012,0.029145826384530556
2.1166666666666667,0.15657594799995,-1.39365947246552,9.79639053344727,0.005321044751951378,0.003826547667895152,0.010442033050875656
2.125,0.1065559014678,-0.70883959531784,9.63686084747314,-0.010376093806463644,0.005120765155153156,-0.022805501458135168
2.1333333333333333,-0.16965113580227,0.31473940610886,9.47828960418701,-0.009093052493182534,0.009987381518528635,-0.018490997399881866
2.1416666666666666,0.01481353770941,0.25501316785812,9.67674541473389,0.0012966763599656839,0.011805544481266304,-0.0018552688070116714
2.15,0.01368338894099,-0.25544947385788,9.83755493164062,-0.0027989971299097628,0.016636843271427896,0.006867847724218197
2.158333333333333,0.30258676409721,0.02825377136469,9.78040504455566,-0.0037083022751984167,0.011434042871876039,-0.0007067903397023082
2.1666666666666665,0.06110664457083,-0.3567126095295,9.8260669708252,0.0017620584289332894,0.007309537152197122,-0.002454319586420878
2.175,0.26783081889153,-0.49587774276733,9.77112007141113,-0.004501821030534819,0.0051851403125733955,-0.006443817863069301
2.183333333333333,0.03642912209034,0.18945729732513,9.74539756774902,-0.00901347807204897,-0.0019518323233650306,-0.01563611783964128
2.191666666666667,-0.32300809025764,0.40786224603653,9.78470325469971,0.0012890765980716936,-0.001733670536114437,-0.0027641271446096445
2.2,-0.24595765769482,-0.17281983792782,9.74674987792969,0.00485923961521546,0.00282291408500411,0.0017531172036700392
2.2083333333333335,-0.12558262050152,-0.08699978142977,9.80598258972168,-0.0033019312006564647,0.005621017079383902,-0.00985170074307021
2.216666666666667,0.1397450864315,0.39369961619377,9.8286714553833,-0.0029831825472415997,0.0028430313542072774,-0.014496578256926254
2.225,-0.13804271817207,0.13857202231884,9.73699378967285,-9.11987519369888e-05,0.0018805272254754529,-0.009483776716097389
2.2333333333333334,-0.06020547822118,0.35288551449776,9.72124290466309,-0.006188103423854023,0.0038122420195630118,-0.005718698395186964
2.2416666666666667,0.06667879968882,0.6368390917778,9.86939239501953,-0.004842922552052257,0.0033857539358923714,-0.005716016508745487
2.25,-0.03333224728703,0.3650167286396,10.00311470031738,0.0011893838674375675,0.006933117017168581,0.005388550163949776
2.2583333333333333,0.46756702661514,-0.09410279989243,9.76746463775635,-0.0007376369751916892,-0.0034588467846932815,0.009235886352881422
2.2666666666666666,-0.18543030321598,-0.21917741000652,9.76559734344482,-0.0036229157130450392,-0.006744237518341114,-0.006249350927439323
2.275,-0.15744122862816,-0.22381246089935,9.57154083251953,-0.002109641652820536,-0.004319870431879472,0.0006578381099153028
2.283333333333333,-0.08848066627979,-0.45143738389015,9.79981708526611,-0.00022620868192814558,-0.001617883756050903,0.002070524783826926
2.2916666666666665,0.17676106095314,-0.33905905485153,9.78173446655273,-0.0013657459889928345,-0.0037892189399245054,0.007091821132339818
2.3,0.07242968678474,-0.26605713367462,9.79910850524902,0.001192960149483494,-0.012645780127564787,-0.0043793286241074385
2.308333333333333,0.14416554570198,-0.56199884414673,9.96418952941895,0.005139094153296208,-0.011291211092771758,-0.0039032173188907715
2.316666666666667,0.10986766964197,-0.43786129355431,9.91311073303223,-9.611632667834768e-05,-0.012014093921457475,-0.007959326611933144
2.325,0.12057882547379,0.20767617225647,9.85863399505615,-0.003359601641972924,-0.014377663953065108,-0.026798131289733452
2.3333333333333335,-0.12956659495831,0.50770878791809,9.77239322662354,0.001312323341629932,-0.016435893203019265,-0.014940502243507193
2.341666666666667,-0.08283707499504,0.50106382369995,9.39337825775146,0.0022211814191534264,-0.010459692097556905,-0.0029639594135685773
2.35,-0.75394535064697,0.46727341413498,9.3798360824585,-0.0006196151163773589,-0.004592572405868542,0.002290921649828316
2.3583333333333334,0.14767044782639,0.37132552266121,9.33810806274414,-0.003104334010448154,0.013226725832824977,0.023431150819005896
2.3666666666666667,-0.34515082836151,0.03557184711099,9.742262840271,-0.0057665333456728765,0.01529523842159775,0.02971358528120553
2.375,0.55303049087524,-0.0549691952765,9.63659000396729,-0.008740774537613898,0.014868302489939037,0.03089022394626229
2.3833333333333333,0.23473484814167,-0.20953537523746,9.9538459777832,-0.00384241818344198,0.008069524784859448,0.014110102608188044
2.3916666666666666,0.12638342380524,-0.34094014763832,9.90071487426758,0.0003717243630499343,-0.0003133840027810462,0.0001727858882734907
2.4,-0.54845136404037,-0.64758265018463,9.71838855743408,0.0023061211736161223,0.006985421605007477,0.00012405711922301442
2.408333333333333,0.19609518349171,-0.58579635620117,9.77026176452637,-0.002256722396212741,0.013173079781616647,-0.014851093891988907
2.4166666666666665,0.0481386333704,-0.43579411506653,9.80497360229492,-0.0030564995801108507,0.012003142711771832,-0.018591581665302746
2.425,-0.28845253586769,-0.26503458619118,9.80465316772461,-0.0051670349783500755,0.008280981335857827,-0.014045949554241537
2.433333333333333,0.28783756494522,0.23201677203178,9.88397026062012,-0.005150047443576458,0.015070817165488058,-0.012745472858198912
2.441666666666667,0.22334036231041,0.50725817680359,9.97197818756104,-0.006222079533698477,0.006636273904016824,-0.0159231244216651
2.45,0.09071233123541,0.55189943313599,9.96044158935547,0.00038692414691204495,-0.008638846728228974,-0.00849891945918869
2.4583333333333335,0.2940748333931,0.6864869594574,9.68761730194092,-0.0002092206757698952,-0.01014407317857159,0.010966873442108383
2.466666666666667,-0.30752217769623,0.2092349678278,9.7763843536377,0.0008880702066729361,-0.01550244795886531,0.013748882257021615
2.475,-0.19569301605225,0.33251532912254,9.65759181976318,-0.0030873459555259275,-0.014510884425407005,0.02641790886807033
2.4833333333333334,-0.55870854854584,-0.03919042646885,9.75601959228516,-0.0012159834891963047,-0.005178211932549882,0.022407847814899757
2.4916666666666667,0.37946546077728,-0.10564033687115,9.76740741729736,-0.0007935185602808481,-0.002765021020065311,0.014981406733375158
2.5,-0.3442234992981,-0.50700050592422,9.78219318389893,0.0004919814631614138,-0.004056109032968068,0.0010271036652761325
2.5083333333333333,0.04573527723551,-0.38352829217911,9.74740791320801,0.000881364450271764,0.0033406016520708503,-0.0011958660899561598
2.5166666666666666,0.71217995882034,-0.46155148744583,9.64001560211182,0.0038913704132289857,-0.0011560783592405059,-0.0026259878865549945
2.525,0.24754558503628,-0.55036121606827,9.79526805877686,0.0008120712223434576,-0.011372126457126326,-0.019611308127288826
2.533333333333333,0.13917326927185,-0.32611113786697,9.5927677154541,0.000589886085281952,-0.016699655382153754,-0.024812320255780573
2.5416666666666665,-0.53694969415665,-0.23013572394848,9.40892124176025,-0.0003478070503533314,-0.0027346214523409143,-0.019810246260717614
2.55,-0.58241772651672,0.03636804223061,9.52444934844971,-0.002759209399194283,0.015446117940621071,-0.030400479024769726
2.558333333333333,0.24779623746872,0.323840290308,9.5897331237793,-0.006581956861049646,0.02588457548967371,-0.02125467409576022
2.566666666666667,0.05550606176257,0.21159540116787,9.7579517364502,-0.004144625849699605,0.02578219983230089,-0.0025137775185745392
2.575,-0.11919497698545,0.33410930633545,9.8241720199585,-0.006082599592497479,0.02221427761554297,-0.000687567141010535
2.5833333333333335,0.26526319980621,0.35799250006676,9.88792419433594,-0.006838118107955605,0.013817280764252766,-0.0025495416394048023
2.591666666666667,-0.29828071594238,0.41354876756668,9.8744068145752,-0.005991400369175859,0.005527582777311484,0.011723286093096476
2.6,-0.0561712756753,0.20957115292549,9.77998924255371,-0.003247391273992469,0.006815095288391403,0.01981225819569746
2.6083333333333334,-0.02955554798245,-0.18910686671734,10.12022113800049,-0.0037387018429226376,0.009231415155082613,0.017508149477209793
2.6166666666666667,-0.05700815841556,-0.41420683264732,10.16336727142334,-0.004206766448517656,-0.0005950272345425664,0.015625162468766423
2.625,-0.23797500133514,-0.50083488225937,10.05452919006348,-0.001716235543464203,-0.0012790179634701972,0.01540074433354873
2.6333333333333333,0.65891993045807,-0.37746214866638,9.87551689147949,0.001250183132923337,-0.012469195902535788,0.009578328297470903
2.6416666666666666,0.30295863747597,-0.40909966826439,9.92525482177734,0.004620066423231729,-0.025663062904817232,-0.0008096124796729293
2.65,0.01432712376118,-0.53437447547913,9.76935195922852,0.005561112599613864,-0.024167670905007946,-0.004367258054526094
2.658333333333333,-0.25044250488281,-0.18306270241737,9.63860607147217,0.003290978430524823,-0.018185657658525953,-0.0078100111799016
2.6666666666666665,-0.16607476770878,0.20345568656921,9.60617542266846,0.0023816732852363445,-0.006242644130740934,-0.014781798648484567
2.675,0.04863933101296,0.20065870881081,9.60061740875244,-0.0002060913151972013,0.0005299809878353539,-0.015339720493883165
2.683333333333333,0.20917774736881,0.33384454250336,9.5164213180542,-0.0003138310055274553,-0.0024865071651310844,-0.012688250264870351
2.691666666666667,-0.23409108817577,0.39675390720367,9.41328430175781,-0.0007036609953842147,-0.008631695204434688,-0.01608227534452719
2.7,-0.68514937162399,0.25688719749451,9.50510501861572,-0.0039050055899507124,0.005891931302461464,-0.003470470286509641
2.7083333333333335,-0.24273878335953,0.34860774874687,9.6922664642334,-0.005700816724883201,0.020004043244885965,0.015895629364004696
2.716666666666667,0.35883650183678,0.18003030121326,9.82234859466553,-0.004831298790161592,0.015053382823023757,0.024567557026250932
2.725,0.0536822527647,-0.32637751102448,9.86922073364258,-0.003991286807782843,0.009319930931516757,0.017994542560799083
2.7333333333333334,0.30370256304741,-0.31272229552269,9.89279651641846,-0.004031968413954164,-0.0005753568380486558,0.014251817107991229
2.7416666666666667,0.27491241693497,-0.45524242520332,9.95501899719238,-0.0003335013044934143,-0.005349879192386783,0.01385259781731804
2.75,0.22565066814423,-0.40813368558884,9.78777980804443,0.0032856138774187815,-0.0142055467646457,0.006068963895627144
2.7583333333333333,-0.4029626250267,-0.46399065852165,9.70996379852295,0.002184969970483873,-0.0068649416537083785,-0.00015736257052880015
2.7666666666666666,-0.24842539429665,-0.52025485038757,9.69781684875488,0.00033283073535505,0.0059111549562830944,-0.0018405159608773937
2.775,0.47526350617409,-0.21745358407497,9.70650768280029,-0.0009249520619343259,0.004400116885069629,-0.00961297435877716
2.783333333333333,0.6198867559433,0.24175924062729,9.63653945922852,0.001794693205445634,-0.014589565231159384,-0.017962578385934305
2.7916666666666665,-0.63787621259689,-0.05578502267599,9.45953464508057,0.0006448735998595422,-0.011417725808712833,-0.013919433798003245
2.8,-0.79985237121582,-0.06240855529904,9.5623140335083,-0.005401738012832214,0.011365198077102814,-0.006336972048194888
2.808333333333333,0.27663001418114,0.28169199824333,9.91820049285889,-0.01201230877128936,0.027488603656012307,-0.01121610682913961
2.816666666666667,0.49143618345261,0.50471138954163,9.69011402130127,-0.003911264278586725,0.01000615888480837,-0.009047005813756738
2.825,-0.37816366553307,0.23080077767372,9.74501132965088,-0.0024234729509314966,-0.005074495852104844,-0.005432584908395899
2.8333333333333335,-0.36605387926102,0.06425398588181,10.05842781066895,-0.0023345093265092795,0.009056617120518945,0.0124461710023768
2.841666666666667,0.24758850038052,-0.1902012526989,10.18787288665771,-0.00384241818344198,0.004176590284638688,-0.003488352216887707
2.85,0.08283707499504,-0.30375978350639,9.9677152633667,-0.003107016417038414,-0.006708472617287938,-0.005680698935531425
2.8583333333333334,0.0611854121089,-0.24823242425919,9.74909496307373,-5.901096191645319e-05,-0.014060702010264357,0.002633363854492101
2.8666666666666667,0.27263775467873,-0.15834248065948,9.99147701263428,0.004214589484219747,-0.020161182232768207,0.00038200653153401055
2.875,0.01838286407292,-0.2948904633522,9.81195640563965,0.007800399352990785,-0.025723859959671237,-0.0071376431075486635
2.8833333333333333,-0.54268616437912,-0.54088395833969,9.59383010864258,0.003160886392240606,-0.007973632780413893,-0.004042698040314682
2.8916666666666666,0.20036543905735,-0.24293200671673,9.73978328704834,-0.003457952909237616,0.011347762694341299,-0.005134847659714173
2.9,0.78510320186615,0.27496242523193,9.54982471466064,0.0002930430696581467,-0.005230069712698097,-0.008150665373579573
2.908333333333333,-0.66569364070892,0.03777416422963,9.49142169952393,0.0016802474986399036,-0.01146109060169715,-0.0030766165892397138
2.9166666666666665,-0.76367330551147,0.07073446363211,9.6596212387085,-0.0018798567538650403,0.010779112262879401,0.004109532200479754
2.925,0.48684394359589,0.40123873949051,9.92562866210938,-0.0034914819513170827,0.016458470775338782,0.01131378658449667
2.933333333333333,0.46758848428726,0.27383229136467,9.72770214080811,0.0003064546474788926,-0.009643821254340846,0.008901042739777085
2.941666666666667,-0.28345286846161,0.10092661529779,9.89691638946533,-0.00020385604139067676,-0.012168327358978683,0.007915291867487021
2.95,0.23489220440388,0.32358747720718,9.82787704467773,0.001566696317475949,-0.007605260905453002,0.02336498999126876
2.9583333333333335,-0.55709916353226,-0.31461063027382,9.53430366516113,0.0017459642494667296,-0.010930884356986864,0.026819361677048317
2.966666666666667,0.06089930608869,-0.36817827820778,9.4594202041626,-0.005039625606730422,0.005217775999345805,0.012186434773796613
2.975,0.57295703887939,-0.24522806704044,9.67171669006348,-0.0012293950019984744,-0.0008659411325270735,-0.0008243651957700547
2.9833333333333334,-0.40522974729538,-0.73448973894119,9.46801853179932,-0.003609950747859246,0.0014218511729831493,-0.0049864258430641645
2.9916666666666667,-0.45133769512177,-0.57985919713974,9.62894725799561,-0.009545918875361444,0.02411693352505265,-0.01622712217950314
3.0,0.87249660491943,-0.00975647754967,9.90858268737793,-0.004964073495110201,0.02215794759729855,-0.015014267644513302
3.0083333333333333,0.38651102781296,-0.31305846571922,9.97861671447754,-0.0009160110317268037,-0.0014086630640264071,-0.009976875556087674
3.0166666666666666,-0.59489476680756,-0.28843122720718,10.03914356231689,-0.0051576478556562095,0.00327130848916112,-0.006170669081389726
3.025,0.05661475285888,0.24278178811073,10.04331398010254,-0.0016380011552912224,0.003078628524219561,-0.005913166371114334
3.033333333333333,0.1205398067832,0.19499319791794,9.87173843383789,0.0009524458192232082,-0.005692769505112769,-0.009321942866496603
3.0416666666666665,-0.20131675899029,0.21499300003052,9.9522008895874,0.00031137226285692695,-0.01388858690243956,-0.0019464676402218366
3.05,-0.49539878964424,0.32189172506332,9.94923305511475,-0.0009312108155889144,-0.005810791233889947,0.009277238170588677
3.058333333333333,-0.56160515546799,0.01751011051238,9.79187679290771,-0.0028602433331235398,0.0003820065640432114,0.007265277183385441
3.066666666666667,0.85554438829422,0.55571866035461,9.81558895111084,-0.00603789385629251,0.0020969007416659314,0.012577604243955976
3.075,0.51066762208939,0.37027683854103,9.46093940734863,0.0072368890304921095,-0.024941069530323656,0.03688766064052613
3.0833333333333335,3.08497595787048,0.51602303981781,6.30932474136353,0.04535775710254985,-0.12257965408140932,0.09432344833664127
3.091666666666667,-4.5875072479248,-4.0066990852356,4.92700052261353,0.06731162957834805,-0.15684760476951656,0.15025646416389532
3.1,-2.28543210029602,-4.9774603843689,4.35787534713745,0.04078395686147443,-0.07505525314570112,0.1426328659379208
3.1083333333333334,-1.40153980255127,-6.10743093490601,5.19084405899048,0.026302348482706902,-0.017295577207356323,0.09508766737857476
3.1166666666666667,-0.08815149217844,-5.90749883651733,5.48016929626465,-0.006298525780848669,0.0499100856073364,0.04696400526332837
3.125,0.43114590644836,-4.88440227508545,7.26952362060547,-0.023596786955241252,0.09282803345029148,-0.008692940627425379
3.1333333333333333,2.38047194480896,-3.4233410358429,9.13672161102295,-0.03590728030305146,0.14832653790094216,-0.057519602369047095
3.1416666666666666,4.7103419303894,-1.59152686595917,9.66866683959961,-0.02305451326184145,0.1067452472538548,-0.11010104660919313
3.15,1.64422917366028,-1.04555213451385,10.25543308258057,-0.02920953627182682,0.08066017526539555,-0.13934233899642468
3.158333333333333,1.53905010223389,1.13471233844757,8.92813491821289,-0.02177012476355586,0.0425797638352177,-0.14874115879315386
3.1666666666666665,-3.73327422142029,-0.02909603528678,9.78934288024902,-0.028247028241980256,0.07056303301895546,-0.13821800231846357
3.175,-1.08818745613098,1.97376596927643,9.94187641143799,-0.03551431840064259,0.09324961185085105,-0.1132693178118979
3.183333333333333,-1.05945408344269,2.2988874912262,11.49612522125244,-0.01906143610240388,0.06946998848380291,-0.08238198381153733
3.191666666666667,-0.45865258574486,1.76580309867859,12.12643051147461,-0.0075842489805712544,0.03518819351921649,-0.05475367655040446
3.2,-1.82796478271484,1.6634429693222,12.42982578277588,-0.0006683438773003606,-0.01092328706579894,-0.032181986071815896
3.2083333333333335,0.02771723642945,2.1235363483429,11.81954479217529,0.0017070706542812206,-0.007758599687295458,0.0032234737987493385
3.216666666666667,0.74166435003281,1.89374494552612,10.82389450073242,0.02055615607015675,-0.044169263209453205,0.029328227952065796
3.225,-0.2136210501194,0.58731722831726,9.82450103759766,0.03441032161550718,-0.07051363138073438,0.042692415549328094
3.2333333333333334,-0.51015096902847,-0.71212959289551,9.08572292327881,0.028412660217026393,-0.05410098154030723,0.043730923538782954
3.2416666666666667,-0.04784979298711,-0.94222223758698,9.22315979003906,0.01712234482023043,-0.03521926511899712,0.03885626099593426
3.25,0.82607328891754,-0.4932773411274,9.67964267730713,0.015773586886159822,-0.043387363274595164,0.02814934432543397
3.2583333333333333,1.21430277824402,-0.53852140903473,9.3157320022583,0.02549295557078306,-0.03911398424923756,0.021715361433046435
3.2666666666666666,0.0940430238843,-1.22458243370056,9.20913410186768,0.02993532465087374,-0.05471880994607048,0.009885901557131786
3.275,0.14658005535603,-1.08135116100311,8.88706493377686,0.021310334162542834,-0.023861883835812572,-0.0025920115166360633
3.283333333333333,0.25474745035172,-0.73431503772736,9.12595748901367,0.018299432893721095,-0.0354785529794408,-0.01865059356998864
3.2916666666666665,-0.74909579753876,-0.66943454742432,9.3291597366333,0.005752450841111858,-0.004955132659958407,-0.02365981856869745
3.3,-0.23050752282143,0.16789868474007,9.55909538269043,0.004009392142006163,-0.0062207385904778255,-0.024050989079154202
3.308333333333333,-0.70439040660858,0.3323786854744,10.3557071685791,0.0038918172209196663,0.007727082840269969,-0.017709099545618428
3.316666666666667,0.37141162157059,0.68610811233521,10.0899019241333,0.009881429319035583,0.006050188089793412,-0.005825543689912768
3.325,-0.60174715518951,0.09022591263056,10.47607612609863,0.014701104867455121,-0.00918380490881365,-0.0012302892675655974
3.3333333333333335,1.07699644565582,0.585045337677,9.9148063659668,0.011607499963218878,-0.01830904316018609,0.004327693987730348
3.341666666666667,-1.06086838245392,-0.34442767500877,10.11856746673584,0.016568444764196923,-0.03461842268756166,-0.0016259307157470307
3.35,0.05297373980284,0.00951352342963,9.57571983337402,0.009528257748085411,-0.010238848423864834,0.005330433435091246
3.3583333333333334,0.45693144202232,-0.0171242877841,9.76413154602051,0.016137037634739226,-0.03290262914041299,0.0024827069590911215
3.3666666666666667,0.52448922395706,-0.19035847485065,9.63096046447754,0.01544455333348051,-0.018373418837754934,0.005926354219996598
3.375,0.33216798305511,-0.46040281653404,9.38612842559814,0.022591585124169214,-0.04217406037146864,-0.0038348182915110118
3.3833333333333333,-0.27223721146584,-0.80882203578949,9.24052143096924,0.00967757370026574,-0.0050767309308556415,-0.004952003445677465
3.3916666666666666,0.33386573195457,-0.19032248854637,8.82177925109863,0.011512724717925636,-0.011217446732063043,-0.015752349216763738
3.4,-1.27573096752167,-0.4810072183609,9.36814308166504,0.00028365497168563933,0.015589845415701145,-0.015939218861205962
3.408333333333333,0.70656406879425,0.36263480782509,8.87151432037354,-0.00625113867835083,0.04357356400787281,-0.00961655090089739
3.4166666666666665,-0.34668397903442,0.12795720994473,10.00143432617188,0.002438896138639035,0.014516471862209692,-0.011039519483218786
3.425,0.66768926382065,0.46324673295021,9.61749839782715,0.00015400964356432565,0.025315029362235845,-0.004737865008237783
3.433333333333333,-1.1111011505127,-0.30755794048309,10.05465793609619,-9.25399145954435e-05,0.011178328432660761,-0.0049184736233750855
3.441666666666667,0.86551028490067,0.40514412522316,9.96821784973145,-0.012428960323832235,0.044815021517148494,0.0021067359724221747
3.45,0.73727935552597,0.3616047501564,10.08823299407959,0.011391572734570296,-0.021525588318837784,0.002241298688356594
3.4583333333333335,-0.64101630449295,-0.4413089454174,9.87814044952393,0.005265610429683107,0.0004816992946773376,0.005228951913248395
3.466666666666667,0.37176185846329,-0.17110314965248,9.77958869934082,0.015039971310221764,-0.017655453494410105,-0.001909809383861603
3.475,-1.11519265174866,-0.78155541419983,10.21186351776123,0.00951976476092169,0.002242193083960868,-0.0020837130228208204
3.4833333333333334,0.76970314979553,-0.16124653816223,9.30281543731689,0.007883998684381263,0.002653928711608862,-0.00757888572783691
3.4916666666666667,-0.62095260620117,-0.54864454269409,9.95690727233887,0.00607567017217675,0.003261472998330573,-0.013619908278261575
3.5,0.25500601530075,0.18083103001118,9.63344860076904,0.0025184716000701685,0.01714603759125644,-0.01117631857827552
3.5083333333333333,0.31789416074753,0.14639747142792,9.61746215820312,0.004421127769654158,0.0028381141289407,-0.008322333153565082
3.5166666666666666,-0.62369215488434,-0.11898754537106,9.73054122924805,0.0024563312613264205,0.0192713264858157,-0.006414312430875051
3.525,0.62027305364609,0.39565235376358,9.47242450714111,0.0018729273335443106,0.013767659623301346,-0.003740043046217768
3.533333333333333,-0.39526611566544,-0.15492342412472,9.90472793579102,0.004079132372681054,0.013008564045574383,-0.002848172763542196
3.5416666666666665,0.35488122701645,0.04586424678564,9.66305541992188,0.0017133296029915373,0.009999451047812762,-0.002481142872099347
3.55,-0.62540882825851,-0.23889064788818,10.10203838348389,0.0033401545843058655,0.001994078536676734,-0.00236312062317356
3.558333333333333,0.59553855657578,0.07992586493492,9.84922885894775,0.004241189105978485,0.007473380336034539,0.0028311847086199696
3.566666666666667,-0.25949791073799,-0.32327285408974,10.02621936798096,0.013947822471045186,-0.01454977906088973,-0.0036403505756579463
3.575,-0.57628309726715,-0.42512208223343,10.00427341461182,0.0036861730710154015,0.01064901788392627,-0.0006853318021854345
3.5833333333333335,0.77478116750717,0.04412592202425,9.59882831573486,0.009128145882328255,-0.0009611633155481504,-0.005661028474019113
3.591666666666667,-0.818363904953,-0.46724516153336,10.26696872711182,0.006393078402519573,0.004575808535014657,-0.006361561035345474
3.6,0.67684537172318,0.09888824820518,9.55607604980469,-0.0038209594508695527,0.03229218476489099,-0.0034280001492039006
3.6083333333333334,-0.2094996124506,0.0568436421454,10.15034198760986,0.01126192880434863,-0.024507432003453164,-0.010053322843535259
3.6166666666666667,0.21691708266735,0.10214255750179,9.7740592956543,0.005212859554302141,0.00696262348966005,-0.0008011185172303924
3.625,0.03434079885483,-0.08171407878399,9.65801906585693,0.012878919075055149,-0.019867918262480078,-0.006484947057154215
3.6333333333333333,-0.45954155921936,-0.17302012443542,9.92346096038818,0.008861702857049677,-0.007012469854977199,-0.003867453458134813
3.6416666666666666,0.8417751789093,0.26165816187859,9.51106357574463,0.011884226327316076,-0.01285321436904947,-0.005509478483385381
3.65,-0.38008061051369,-0.31825858354568,9.86727523803711,0.012065282790441277,-0.015687079923813525,-0.005715569701054806
3.658333333333333,0.52546215057373,0.20919920504093,9.21710300445557,0.01184667471564861,-0.018495464436491634,-0.002602740882922452
3.6666666666666665,-0.88036477565765,-0.43025064468384,9.59508800506592,0.013630412160107753,-0.022063392895033212,-0.005837167451803431
3.675,-0.06166467443109,-0.23798230290413,9.31284332275391,0.005152953514086275,0.016083391583530893,-0.0015946371425298166
3.683333333333333,0.06922549754381,-0.22394816577435,9.64397048950195,0.005875837903217817,0.004553455666912083,-0.005305621824318319
3.691666666666667,0.15234124660492,-0.05865331366658,9.94336032867432,0.0019956434038914217,0.00968226752168689,-0.006347701674555406
3.7,-0.05165783315897,-0.09155639261007,9.79758548736572,0.003229732487385351,0.00850584835936081,-0.00722526578875023
3.7083333333333335,-0.43990698456764,-0.16666840016842,9.93833923339844,0.0021281945749574496,0.01289277791569661,-0.005630181578455427
3.716666666666667,0.48121476173401,0.16934369504452,9.60241413116455,0.0019601029469808904,0.01205947064942164,-0.0025039425478926
3.725,-0.08142080903053,-0.15364307165146,9.7839879989624,0.006522722852890022,-0.0001233865500848246,-0.0036640441269068656
3.7333333333333334,-0.31147053837776,-0.2410794198513,9.87533664703369,0.0014231925063154318,0.009802302225741133,-0.005404420939571084
3.7416666666666667,0.93862509727478,0.24852558970451,9.71813869476318,0.0049741326498604806,0.0005782626484841695,-0.004727582709716555
3.75,-0.61970800161362,-0.24291770160198,10.19235801696777,0.012216833301223615,-0.017210187524311117,-0.006756307047625242
3.7583333333333333,-0.14694085717201,-0.10520401597023,9.95727252960205,0.005987600683284679,0.0055816766765077125,-0.0021378060117569833
3.7666666666666666,0.65693128108978,0.08246517181396,9.86203861236572,0.011875284972015497,-0.008875338033771404,-0.0021328883963787747
3.775,-0.33051851391792,-0.26522749662399,9.90521430969238,0.014537483787091438,-0.01749630257154801,-0.004264435849536898
3.783333333333333,-0.07973989099264,-0.12789998948574,9.30023384094238,0.015008677086818615,-0.013202362070039948,-0.004186648919240184
3.7916666666666665,-0.92855370044708,-0.54377353191376,9.78988170623779,0.008250581247984824,0.004147978467825799,-0.006763907459704992
3.8,0.28597632050514,0.0999918282032,9.53231716156006,-0.006664661536761546,0.039398979936578746,-0.0005364632753725222
3.808333333333333,0.56608295440674,0.21062941849232,10.00644874572754,0.001957420280316326,0.004171672279149023,-0.0047865935741050565
3.816666666666667,0.50044149160385,0.11347270011902,9.91112232208252,0.009616327236977657,-0.009119875518786699,-0.003101204796167387
3.825,0.07073436677456,-0.17805562913418,9.38894271850586,0.012945529311226184,-0.012006941877514405,-0.004107073457809226
3.8333333333333335,-1.76270377635956,-0.68544220924377,9.88081550598145,0.0005997212510196192,0.007444992183141207,-0.006103163669391328
3.841666666666667,1.34723365306854,0.1161921620369,9.86885738372803,-0.026086869622195006,0.10031527782845388,0.004373740667156143
3.85,-1.87177014350891,-0.51529806852341,11.95476055145264,0.0013574754954143013,0.004352729002348702,-0.016747489292342273
3.8583333333333334,7.58381175994873,2.57920050621033,8.3427267074585,0.025673120499121512,-0.07186999596866857,-0.00041173562764799346
3.8666666666666667,-5.23810720443726,-1.96079790592194,10.16311836242676,0.05511378170286441,-0.11090037776562364,-0.013269868002186954
3.875,-4.59332275390625,-1.61425149440765,9.71143913269043,-0.008054101857226388,0.04944246780943207,0.00025012601087934884
3.8833333333333333,3.3829870223999,1.10027146339417,8.64176368713379,-0.005361950802265344,0.009769666018820114,-0.005893049622059775
3.8916666666666666,1.80160057544708,0.34036085009575,9.95718574523926,0.002427272636822851,0.00855725933181817,-0.0007067904047208842
3.9,-4.4122633934021,-1.39524054527283,11.71367359161377,-0.00219815833951492,0.04294813310943538,-0.00853513012763533
3.908333333333333,5.85059070587158,2.07105422019958,8.4827709197998,0.012401018978629759,-0.05587623223938649,-0.0015678139868884992
3.9166666666666665,-1.40352368354797,-0.92429751157761,10.3908634185791,0.012844047269234726,0.00842314420379752,0.002264545431914832
3.925,-0.47090646624565,0.42169073224068,8.81675434112549,0.04516373333356994,-0.11017839479410313,-0.014911444659301014
3.933333333333333,-0.33744630217552,-0.88370704650879,7.37009239196777,0.021519999841737705,-0.04571695095457435,-0.0021190296857744673
3.941666666666667,-2.01650810241699,-1.03194785118103,8.53404235839844,-0.001756022884068226,0.015882218891499916,-0.005124565361192945
3.95,-0.536776304245,-0.00841667130589,9.21144390106201,-0.012393194902630274,0.04229632859382768,-0.009420741981749194
3.9583333333333335,1.45830464363098,0.68640148639679,9.54355525970459,-0.014213594504564742,0.04163066731817313,-0.00019938552628682844
3.966666666666667,0.41881534457207,-0.19865165650845,10.31596755981445,-0.004784358495354261,0.036546780182185205,-0.006311043158120693
3.975,0.5042467713356,0.66446340084076,10.41373729705811,-0.0047333938104389735,0.0248299782621646,0.001520649768087305
3.9833333333333334,-0.05222290381789,-0.53218579292297,10.6411714553833,0.004510538721915664,0.02408250800677413,0.0001499861962254625
3.9916666666666667,0.28670740127563,-0.14180511236191,10.48553085327148,0.002882372277232076,0.015863889893356867,-0.002950100833001423
4.0,-0.58186233043671,-0.4630035161972,10.61085605621338,0.0069241761820166125,-0.007831023104783348,-0.008314286453943259
4.008333333333334,-1.7279406785965,-0.40671807527542,10.55549907684326,0.002641411074262533,0.011673216584008377,-0.004313611483169157
4.016666666666667,1.01425158977509,-0.00374122476205,9.94253063201904,0.0011308198107397465,0.010073661696063375,-0.006387489405270885
4.025,0.11220664530993,0.2927873134613,10.62241554260254,0.010161732225252839,-0.008434991629607914,-0.006877459551129187
4.033333333333333,0.50567024946213,0.14513118565083,9.94001293182373,0.007717694677278885,-0.012432089538113002,-0.0017765874811106832
4.041666666666667,1.01888787746429,0.20002546906471,9.60701942443848,0.01589384109294458,-0.024781920688056177,-0.004238953767153384
4.05,0.33091276884079,0.06762847304344,9.45421886444092,0.01844695953454392,-0.04043680965219354,-0.005782627265065131
4.058333333333334,0.18214192986488,-0.05626511201262,8.69841480255127,0.01927758491437741,-0.04048196687742719,-0.004838898682092735
4.066666666666666,-1.67730593681335,-0.81121104955673,8.97161102294922,0.013797610822888886,-0.015942795403326195,-0.0035791043724441697
4.075,-0.31636312603951,-0.24738137423992,9.07823657989502,0.0033772601685055632,0.012231587837841047,-0.005985589268453615
4.083333333333333,-0.73548150062561,-0.45809429883957,9.94890880584717,-0.009810571548985294,0.03257204346416095,-0.003537081302903589
4.091666666666667,1.80849647521973,0.47281035780907,9.82028961181641,0.00040435917207147943,0.011705851750632178,-0.0058054264207096015
4.1,-0.81178331375122,-0.20693889260292,10.58508491516113,0.00548287808140373,0.001563119775355718,-0.006513557833669887
4.108333333333333,0.60018783807755,0.33543986082077,10.03857135772705,0.007451251131851524,-0.010041251233656697,-0.003084663809010146
4.116666666666666,0.20796175301075,0.00278960866854,9.7376012802124,0.01571457290087932,-0.02211301507628185,-0.003460634795679093
4.125,-0.7080956697464,-0.19888480007648,9.49904727935791,0.014731505475476735,-0.01974006156302113,-0.0032540970303934665
4.133333333333334,-0.69265270233154,-0.53055495023727,9.52025508880615,0.006020235329759871,0.00355742197595201,-0.001670188994075559
4.141666666666667,0.32304388284683,-0.07541951537132,9.46789741516113,-0.0010528092815420516,0.018207788943303403,-0.0014345923442120585
4.15,0.1124574020505,0.00765314139426,9.69369029998779,0.00433574120750078,-0.004466504497618149,-0.0051102602330095875
4.158333333333333,-0.28825241327286,-0.1862814873457,9.77124118804932,0.0009390342414024622,0.01382711677523192,-0.0025960351265212796
4.166666666666667,0.3239808678627,-0.17549499869347,9.76478958129883,0.0035283638715972224,0.010295848393570879,-0.004938144084887398
4.175,-0.07617062330246,-0.10292226076126,10.17592811584473,0.002720986275619187,0.011692440237830181,-0.00515183519448779
4.183333333333334,0.46280336380005,-0.10400202125311,9.95931243896484,0.00260341135453269,0.0121716812774764,-0.00581436725586157
4.191666666666666,0.21225346624851,-0.02980589680374,10.10831165313721,0.008329264134331637,-0.00828209913530753,-0.007992856434235524
4.2,0.05492668226361,0.04017036780715,10.16203689575195,0.008938596432039158,-0.009994310938849366,-0.007746976445553403
4.208333333333333,-0.12980264425278,0.0679734647274,9.8521614074707,0.011835943008693483,-0.017645618523728337,-0.004497797160575297
4.216666666666667,-0.20927788317204,-0.13689111173153,9.57611846923828,0.01344064112649371,-0.017878980094841044,-0.0027507153717331702
4.225,-0.8107675909996,-0.28973305225372,9.57086849212646,0.006692156074273343,-0.00018686803523225182,-0.0045523378674623815
4.233333333333333,0.67600792646408,0.03441233932972,8.958083152771,-0.0007228842590943892,0.0205436371324389,0.0003100310595617968
4.241666666666666,-0.18517994880676,-0.19653867185116,9.52787971496582,0.008718645333431058,-0.005728533365868728,-0.007360276092598243
4.25,-0.1134941354394,-0.19012263417244,9.41598701477051,-0.0012781236979029001,0.01631228299714218,-0.001965243836167026
4.258333333333334,0.24454864859581,-0.0136401373893,9.56407451629639,0.002187652897222568,0.009066005803658813,-0.004269800662717069
4.266666666666667,0.14610393345356,-0.08209329843521,10.02342796325684,0.0009202579804386969,0.011167153559055388,-0.002372955853929804
4.275,0.06161458790302,-0.14737002551556,10.09076595306396,0.0027612210740998264,0.008714175175929465,-0.005325291765682022
4.283333333333333,-0.04983359202743,-0.05464081838727,10.09633255004883,0.00672121365847952,-0.006135350988027056,-0.004291258875141063
4.291666666666667,0.10006111860275,0.01420554611832,9.96114253997803,0.00895021863348382,-0.011685065570264773,-0.005209058307964959
4.3,0.58096104860306,0.16884285211563,9.74144268035889,0.013788671548183095,-0.024681336422635296,-0.005109365577330834
4.308333333333334,-0.60691159963608,-0.25098609924316,9.85379981994629,0.013866906066393401,-0.023293683853081962,-0.006640968245586757
4.316666666666666,-0.25177291035652,-0.08039795607328,9.55879497528076,0.010516244739423662,-0.015787667310126405,-0.0013062881868764996
4.325,-0.29970380663872,-0.28925362229347,9.62731075286865,0.007570614323998136,0.0031765332438678765,0.00499603766997498
4.333333333333333,-3.24582362174988,-1.43864619731903,10.77353096008301,-0.0068801429980164894,0.057662655731476324,0.07354956844439757
4.341666666666667,-3.40680909156799,-2.93191170692444,12.2788667678833,-0.027212995611513423,0.15914339943197603,0.12036156546613126
4.35,0.00576724484563,-2.99301910400391,14.25258731842041,-0.029245303773623388,0.19606241879433786,0.14450783121387747
4.358333333333333,3.7964084148407,-4.12498378753662,13.98979759216309,0.007034151211171967,0.1531819466213473,0.11372461848976062
4.366666666666666,1.82578802108765,-5.27675676345825,13.78636646270752,0.010324681273560284,0.04151912664158,0.0571391490013832
4.375,0.75305843353271,-4.44629287719727,12.99715900421143,0.016086522878406444,0.0005317692588954694,0.011839074303568857
4.383333333333334,0.35272976756096,-3.97146487236023,13.00945091247559,0.03460747043757863,-0.015023207959516487,-0.03672761714257989
4.391666666666667,2.40859889984131,-3.73360323905945,12.4644603729248,0.026696427664416867,-0.034100294294513764,-0.10063739548467734
4.4,3.00290060043335,-1.72775447368622,11.54453468322754,0.011949943988402966,-0.08965241358745366,-0.14989723702235722
4.408333333333333,1.53226470947266,0.76719170808792,10.46498203277588,0.024179521971858776,-0.12730366076915442,-0.16205082232828613
4.416666666666667,0.22749069333076,1.16121292114258,9.24298191070557,0.060606713737531806,-0.1507900118435358,-0.13608554265460995
4.425,-2.03424572944641,-0.05410367622972,8.82637119293213,0.04612356155756982,-0.12646453199918398,-0.1237308137849744
4.433333333333334,-1.06190919876099,1.3841712474823,8.07182121276855,0.021309443668053298,-0.0912667302940973,-0.09806818572442898
4.441666666666666,-1.07204782962799,2.12633609771729,7.9770245552063,0.02580276442934335,-0.07456883509497653,-0.08352151715246871
4.45,-1.56910479068756,1.89714920520782,8.12832927703857,0.02289468822632833,-0.06326287986856038,-0.06372916192473033
4.458333333333333,-1.89763593673706,2.04372930526733,8.38453388214111,0.010478693127756197,-0.030951697194361933,-0.03563367795174859
4.466666666666667,-1.10792529582977,2.35806345939636,8.36791038513184,0.012822142769268836,0.0029722297771099587,0.014967548933031092
4.475,-0.62896722555161,1.1935441493988,8.74056625366211,0.022450986863369736,0.02832526067959595,0.03958696165883563
4.483333333333333,0.00892799999565,0.34822210669518,9.0859375,0.012487300196461715,0.037314373948562504,0.055578711372543436
4.491666666666666,0.07822145521641,-0.06987807899714,9.40495777130127,0.0013646287096917406,0.043136788944343106,0.04542525575261581
4.5,-0.31595182418823,-0.17859567701817,9.65001583099365,0.0032646022126113393,0.055654261923717495,0.0455647304923302
4.508333333333334,0.13026267290115,-0.49952775239944,9.78305149078369,0.006508863492099954,0.04916931902775249,0.047239384442420915
4.516666666666667,0.41993421316147,-0.67563426494598,10.17154502868652,0.002710927901091995,0.04609829065553838,0.03345698068547518
4.525,0.60503679513931,-0.63657927513123,10.4820613861084,0.00958883530020908,0.02765960356513062,0.024282116091664894
4.533333333333333,0.29287314414978,-0.80963742733002,10.65486812591553,0.01522371174038305,0.011723287133393868,0.0194000778409534
4.541666666666667,0.69215202331543,-0.93758749961853,10.50761222839355,0.011467572694178417,0.012651814892206762,0.012380454381587302
4.55,0.633620262146,-0.54667747020721,10.29166793823242,0.014406050545512266,-0.013463887609977644,0.0020414662893605087
4.558333333333334,0.23834589123726,-0.34108278155327,10.0691385269165,0.022125311390377534,-0.024187338765777038,-0.012884953839697127
4.566666666666666,0.10741131752729,-0.42552220821381,9.96510410308838,0.023550963939735013,-0.02342243520821966,-0.014182301321458986
4.575,-0.34866511821747,-0.36265650391579,9.85965824127197,0.018232150625493826,-0.018136928052361286,-0.0100935563416442
4.583333333333333,0.11015385389328,0.17641766369343,9.69242477416992,0.01799320057728104,-0.015509152674969091,-0.003257673052364914
4.591666666666667,-0.12400878220797,-0.06381770968437,9.72602939605713,0.023186612293693207,-0.012835331658448492,-0.0021784881380767377
4.6,0.34654095768929,-0.1613252311945,9.4988956451416,0.023137437440283688,-0.013796939831129864,0.0010382798392530271
4.608333333333333,-0.14882205426693,-0.15169748663902,9.4389705657959,0.017808568612332827,-0.01914458498506324,-0.007904784864748843
4.616666666666666,-0.4321029484272,-0.07672150433064,9.35522556304932,0.018451430732342726,-0.005775474700973279,-0.007699142015216101
4.625,-0.33145558834076,-0.18873491883278,9.39088916778564,0.018393313483335588,0.005333562649372186,-0.004804922572248109
4.633333333333334,0.0653912872076,0.01688070967793,9.54266548156738,0.01471049355059499,0.003764407589225709,-0.005096848200058809
4.641666666666667,0.44251063466072,0.35069674253464,9.63807678222656,0.013636671628966856,-0.004968990980451083,-0.011909931033321755
4.65,-0.21909873187542,0.27818837761879,9.69773864746094,0.018315528373559355,-0.007259241898594682,-0.00956737604748787
4.658333333333333,-0.66254645586014,0.04008449986577,9.76500988006592,0.016250592326906635,0.005138647865754135,-0.0013107587344895488
4.666666666666667,-0.21895568072796,0.26369670033455,9.59553146362305,0.009724515035370288,0.010521609552604007,-0.0026331404506466727
4.675,-0.08555515110493,0.41263321042061,9.81310653686523,0.011080425013383967,0.014189229701482321,0.0016105075280394923
4.683333333333334,0.1679702103138,0.26310300827026,9.97777271270752,0.01766864030299515,0.009450024270172495,0.012940611825885302
4.691666666666666,0.30092009902,-0.21194589138031,10.1236686706543,0.016732064804263213,0.002664657557746467,0.010797441261022452
4.7,0.07518353313208,-0.20303344726562,10.01573276519775,0.013273667167929526,0.0011639019150913804,0.004667007238187495
4.708333333333333,-0.20062294602394,-0.14299248158932,9.79475975036621,0.015686856259893793,0.0003180780192579246,0.01122884735018276
4.716666666666667,0.20216795802116,-0.33920210599899,9.57048225402832,0.016508092956587596,0.0066277803967044946,0.0076260496865638
4.725,0.22861197590828,-0.6212529540062,9.65127944946289,0.019551181023896448,-0.0016818122358176135,-0.0009647397926498053
4.733333333333333,0.18393535912037,-0.5329082608223,9.69491291046143,0.017530950713448876,-0.008976371707626182,-7.5998970105743246e-06
4.741666666666666,0.01945573277771,-0.48134341835976,9.78728485107422,0.017468362266642928,-0.008238734862471819,-0.002592905652166208
4.75,-0.09270799905062,-0.35285690426826,9.92514228820801,0.01553977590661322,-0.003487458341431867,-0.02082550568609393
4.758333333333334,0.19540137052536,-0.04931169748306,9.87628746032715,0.014693953863809445,-0.0010635385177911133,-0.02323243947038849
4.766666666666667,0.14416554570198,0.10868029296398,9.8006534576416,0.01612496810545527,-0.010240189367085486,-0.016870874794002406
4.775,0.11476021260023,0.17450791597366,9.69266700744629,0.02066747412312754,-0.012567993977491159,-0.006914117547415117
4.783333333333333,-0.45065772533417,0.08280131220818,9.79687023162842,0.01779560650796473,-0.011944801798844962,-0.014502837725785181
4.791666666666667,-0.44067233800888,0.26755207777023,9.8651008605957,0.015190626125027957,-0.0016429186406321044,-0.013383864820707221
4.8,-0.29333093762398,0.35767075419426,9.83851337432861,0.017804994150807205,0.00809813764196973,-0.0033064021383809707
4.808333333333334,-0.54742574691772,0.26353091001511,10.18405818939209,0.011971848488368858,0.017879200637868773,-0.060666842921518624
4.816666666666666,1.96605551242828,1.45059990882874,9.97316932678223,-0.010876346770991781,0.024171024823505662,-0.0999949744507229
4.825,1.50858151912689,3.44365620613098,8.65169906616211,0.028228922907756932,-0.07146227432815584,0.12745361338328262
4.833333333333333,-4.52333927154541,-0.79351985454559,9.82700538635254,0.07196497927342206,-0.03765435559003545,0.08549771583936197
4.841666666666667,-0.75379359722137,-3.57994198799133,9.45885562896729,0.043342876000823136,0.06266673125854608,0.048778595845135025
4.85,2.59540224075317,-2.86485958099365,9.27708053588867,-0.016792195028547417,0.027058985837912122,0.009464776726195317
4.858333333333333,-0.18041615188122,0.3930701315403,9.83715343475342,-0.013746422994202477,-0.003304166539481566,0.00025861998957648616
4.866666666666666,-0.85187518596649,0.15437191724777,9.80477809906006,0.04443235023563929,0.010578385858390322,-0.007201572497575614
4.875,0.27218788862228,-2.14462089538574,10.189697265625,0.038646145908305486,0.0316596028628077,-0.015402754187933968
4.883333333333334,2.38769054412842,-1.28492951393127,9.99904537200928,-0.003634538694712615,0.007486569225214194,-0.024488654637173434
4.891666666666667,0.52364480495453,1.03261148929596,9.77150249481201,-0.004897015931099876,-0.028732528750485396,-0.031278494107844446
4.9,-0.62933158874512,0.97246664762497,9.58243465423584,0.020169007349064908,-0.0246875927706024,-0.04028525914141119
4.908333333333333,-0.64911335706711,0.68194490671158,9.60025215148926,0.00933602537105762,-0.009739042787175986,-0.02361421609621894
4.916666666666667,-0.70588529109955,1.34369003772736,9.55319309234619,0.008399897200164977,0.0024634840854924037,0.0026449873563084594
4.925,-0.88985681533813,1.06117117404938,9.66423892974854,0.02977080579393948,0.015282720524177118,0.01903170648614129
4.933333333333334,-0.26857647299767,-0.46393656730652,9.91250324249268,0.030180306342836676,0.017475065942449314,0.010528316349302222
4.941666666666666,0.66263937950134,-0.57816404104233,9.98622798919678,0.0025041654315892444,0.013413146068833131,0.00992345212850186
4.95,0.35527485609055,0.57948744297028,10.09079456329346,-0.0032116268930877266,0.0022086637818070974,0.009182238221078482
4.958333333333333,-0.00112301739864,0.64592307806015,9.94998931884766,0.023499997694373553,-0.006309702735048652,-0.00037865365333351176
4.966666666666667,0.10503259301186,-0.59044563770294,9.85561466217041,0.02669955271750841,0.0006207326557527571,0.008125853762806648
4.975,-0.00117350672372,-0.76510387659073,9.80452442169189,0.01790334593822068,-0.0020497369129761937,0.010805935288483566
4.983333333333333,-0.04778829962015,-0.39256957173347,9.55690765380859,0.017790238573892555,0.0019663615055795763,0.004105508850668842
4.991666666666666,-0.05950450152159,-0.65693140029907,9.61652565002441,0.020318770629084524,0.0025788239278281048,-0.016365705384430777
5.0,0.27304518222809,-0.59975159168243,9.6309814453125,0.009018394517092458,0.002186534837698561,-0.015378613048771278
5.008333333333334,-0.08966088294983,0.37691906094551,9.80430126190186,0.004814981726998388,-0.002778432532867306,-0.01106366166267869
5.016666666666667,0.43027925491333,0.86892735958099,9.74611377716064,0.019001306918416894,-0.005580559397206618,-0.0034181654385964408
5.025,-0.03647845238447,0.04684446752071,9.88245391845703,0.0276039414177534,-0.01223270199625014,0.007039068176364414
5.033333333333333,-0.04022758826613,-0.41840556263924,9.82210540771484,0.02247535270674937,-0.016696971415117667,0.0017057297110605694
5.041666666666667,0.16662526130676,0.01229603774846,9.75139999389648,0.012254833281027592,-0.018281325478903168,-0.014942737842406774
5.05,-0.26251649856567,0.18221867084503,9.69173049926758,0.014535247147894816,-0.011785202507846362,-0.01399051523197309
5.058333333333334,-0.80899369716644,0.01527847256511,9.68160915374756,0.017215330754166345,-0.0030417466039394207,0.00023179683393516895
5.066666666666666,0.18642453849316,-0.05461195483804,9.66016483306885,0.01407657070529088,0.010555137294311779,0.003478293322211732
5.075,0.42289754748344,-0.10775757580996,9.87771892547607,0.0188072873106262,-0.0023434504217355523,-0.0066762858188008185
5.083333333333333,0.25865402817726,-0.34514617919922,9.57616329193115,0.020559283203843086,-0.0024999186779330797,-0.0011243375882211543
5.091666666666667,-0.47153729200363,-0.51399600505829,9.61603736877441,0.015429801917755084,-0.003053817173520765,-0.012098587908526708
5.1,0.03075722418725,-0.07911044359207,9.58267784118652,0.011109259973967806,0.010121274022926945,-0.018491887894371405
5.108333333333333,-0.10863737761974,0.21077997982502,9.78593349456787,0.013947150438988773,0.004547420382121325,-0.019175209257004413
5.116666666666666,-0.17668952047825,0.20636667311192,9.81000995635986,0.017080767258009014,0.008767373899298506,-0.005684275477651656
5.125,-0.28862437605858,0.04969080165029,10.00226402282715,0.014755646614639425,0.006126188049401531,-0.00017211531913512637
5.133333333333334,0.10493220388889,0.30780827999115,9.9216365814209,0.014987443578611745,0.01400348045723319,-0.006628227724543783
5.141666666666667,0.17086711525917,0.21030788123608,9.90283966064453,0.017505242886551194,0.006231468216838343,0.0034011771235999103
5.15,-0.14035308361053,-0.12085443735123,9.98951721191406,0.016137931250120585,0.005788661509558499,0.0081879943616247
5.158333333333333,0.42006501555443,0.11320804804564,9.83804893493652,0.012273163319468034,0.0016842712385622717,0.010577938530551032
5.166666666666667,0.12913313508034,0.11178334802389,9.72859668731689,0.021331341926235363,-0.008420238133287702,0.025737046768256288
5.175,-0.38311204314232,-0.5232310295105,9.65757369995117,0.02258443412052337,-0.0030323587010226416,0.022410529701341237
5.183333333333334,0.15493786334991,-0.65590846538544,9.60093784332275,0.01711764787791728,-0.0005279692804207846,0.003371671691405485
5.191666666666666,0.39141070842743,-0.3530071079731,9.65631675720215,0.013041646540037472,-0.008082266866348423,0.0031322750955765
5.2,-0.13238482177258,-0.11542543023825,9.78818607330322,0.01699537965555824,-0.010762346831579516,-0.009272766972789868
5.208333333333333,0.19366286695004,-0.01530626602471,9.80813694000244,0.015463776987302317,-0.007218560032349233,-0.035516548798055554
5.216666666666667,0.26496261358261,0.62671089172363,9.83889389038086,0.013344970185224495,-0.014801244925928714,0.006539487764041299
5.225,0.1187122091651,0.37699827551842,9.7964506149292,0.021184039989629665,-0.018930670731691728,0.00823515780020298
5.233333333333333,-0.35631170868874,-0.15566731989384,9.87095928192139,0.02363210088741453,-0.014559837695491401,-0.006123951930353518
5.241666666666666,-0.14029608666897,-0.35949450731277,9.83385753631592,0.011418397840769071,-0.012739215469934595,-0.017216450114062046
5.25,-0.27661469578743,0.68338966369629,9.75894641876221,0.00813837061992989,-0.011601466238874118,-0.0018369396788316416
5.258333333333334,-0.23062911629677,0.57978081703186,9.69655799865723,0.025532299614699685,-0.0038464417933271964,0.009909147000318327
5.266666666666667,0.09008818864822,-0.44007754325867,9.74143314361572,0.029258486421019213,-0.0019549617977202764,0.0007709425484071525
5.275,0.25507047772408,-0.60676860809326,9.73786544799805,0.014604095063559865,-0.010689477126549553,0.0021755820675669196
5.283333333333333,0.05527006462216,0.04090706259012,9.54109191894531,0.012634379509445244,-0.012232256749005459,-0.0017998342246690962
5.291666666666667,-0.08755815774202,-0.19266177713871,9.48757934570312,0.02167490427101794,-0.0029822889318602388,-0.0044682922485296565
5.3,0.0340117700398,-0.50438988208771,9.59578227996826,0.017253328653375706,-0.0004716406275664658,-0.0033917889606086523
5.308333333333334,0.07668562978506,-0.08736482262611,9.6227912902832,0.009108028613125086,0.0035069046188760124,0.0009819512514174591
5.316666666666666,-0.03449816256762,0.1592365950346,9.66907691955566,0.019708544715995643,0.0022073230986607503,-0.01738006807353373
5.325,-0.01525701396167,-0.18590953946114,9.85210418701172,0.019910609983110762,0.0014906973981650468,-0.019055622921086854
5.333333333333333,-0.12162656337023,-0.15195487439632,9.97029876708984,0.012325020059318856,0.004475667956392457,-0.006652144159489522
5.341666666666667,-0.06137854605913,0.52709299325943,9.8004035949707,0.008639070392148708,-0.0008923172204034055,-0.006319537185581806
5.35,-0.06498394906521,0.64847666025162,9.69513607025146,0.015048913705819558,0.002721433603458477,-0.011145025395169764
5.358333333333333,-0.21780391037464,0.29435381293297,9.85150909423828,0.018707146211855395,0.006423476929946576,0.003576645109625207
5.366666666666666,0.05510557070374,0.25855383276939,9.88703918457031,0.014605882294322588,0.006690367803213228,-0.002203522632546483
5.375,0.14330731332302,0.33151280879974,9.86396980285645,0.01589674664330579,0.007246724521322657,0.0026492343700389286
5.383333333333334,0.05037032067776,-0.05846018716693,9.77252864837646,0.019315362270559043,0.0026331407107209773,0.013376712776764152
5.391666666666667,-0.13324315845966,-0.48221606016159,9.73213672637939,0.01791854468178557,0.00610338733331106,0.01274078007707498
5.4,-0.05172207206488,-0.60269123315811,9.72747898101807,0.013739494614179138,0.004394751551740673,0.002418331541596578
5.408333333333333,-0.03030630201101,-0.4223752617836,9.80683422088623,0.013939775771423362,0.00686784824436698,-0.009103336872298372
5.416666666666667,0.08993241935968,-0.39633187651634,9.89181518554688,0.017995884544317126,0.003937416832580652,-0.006534122950860952
5.425,0.07741480320692,-0.44018590450287,9.90829563140869,0.0193929226761185,-0.0001730093896466953,-0.009433706166711898
5.433333333333334,0.1572552472353,-0.24640113115311,9.82754135131836,0.01368361400436862,-0.003760607383185921,-0.017056848742468662
5.441666666666666,0.08681405335665,0.13945183157921,9.84771919250488,0.015000630387196965,-0.006362900938268908,-0.005475054525552856
5.45,0.25144380331039,0.33676308393478,9.83980941772461,0.016731173269476464,-0.007027221790851412,0.0025479772923387234
5.458333333333333,-0.02789601311088,0.42249682545662,9.65015697479248,0.015737822505255256,-0.012725802916835208,0.0026592935247892087
5.466666666666667,-0.07784456014633,0.53054797649384,9.58558368682861,0.017679372009950452,-0.007147925406069893,0.004838227690333714
5.475,-0.00833683926612,0.49093401432037,9.50447463989258,0.020491555688370952,-0.009970393463606408,0.019170068107743802
5.483333333333333,-0.29407516121864,0.05814557150006,9.49460506439209,0.020095687195303656,-0.007232865680681372,0.014394427303770385
5.491666666666666,-0.08970380574465,-0.0972071364522,9.63224697113037,0.015116418597669172,0.0003685949862226401,0.006726132184117795
5.5,0.18946479260921,0.01768183708191,9.77736473083496,0.014259417520070981,0.0005800509195442849,0.008983749496083594
5.508333333333334,0.07242253422737,-0.14553174376488,9.78232097625732,0.018783589338113763,-0.0011095848721240289,0.00317250963398266
5.516666666666667,-0.24602918326855,-0.45889064669609,9.7516565322876,0.014948327359803894,0.0012577828948173273,-0.007572179971435912
5.525,-0.03446921333671,-0.38607463240623,9.7813196182251,0.014427509798233474,0.0040581212280222205,-0.02053313429088977
5.533333333333333,0.24399809539318,0.0257574506104,9.78810787200928,0.013247514093786992,0.0026443171447723506,-0.010744912489115218
5.541666666666667,-0.09485384821892,0.17768377065659,9.86349868774414,0.01989451658386729,-0.0013062880568393473,-0.001459627098756108
5.55,-0.1368195861578,-0.11654127389193,9.85715389251709,0.018115244095423127,0.00031763091898373856,-0.019748105141750953
5.558333333333334,0.09758623689413,0.02266735956073,9.83455848693848,0.013220020076423979,-0.001984020032112215,-0.010308588914613852
5.566666666666666,0.06827388703823,0.45401239395142,9.78787136077881,0.01368048374979046,-0.004277400294573908,0.0020423604248904787
5.575,-0.36077508330345,0.54277205467224,9.87142372131348,0.020018796741206005,-0.001971949852642503,0.0022448752304768246
5.583333333333333,-3.09797167778015,0.12161409854889,11.03612995147705,0.01493089197704238,0.061058689625221006,-0.09650617516607023
5.591666666666667,-0.99598443508148,1.73442900180817,12.25136089324951,-0.015012032045613721,0.1365632138856293,-0.13218813955733338
5.6,0.1332484036684,4.57936668395996,14.37757015228271,-0.021740176684859974,0.16096335378666585,-0.12750392216074993
5.608333333333333,3.11623024940491,5.5899019241333,14.3556079864502,-0.0007747424293542349,0.14025048525052003,-0.09445599053514328
5.616666666666666,2.17442345619202,5.301344871521,14.10363960266113,0.01863025367716313,0.04874059586533088,-0.04121334165297941
5.625,0.77376824617386,4.34769439697266,13.84894275665283,0.0255188901824923,-0.010416329385167197,0.010539492263204987
5.633333333333334,0.73829609155655,2.94357824325562,13.09424781799316,0.009610069848713342,-0.06382706638430434,0.05852434646930679
5.641666666666667,0.84907650947571,2.08411312103271,12.07515335083008,-2.056442433689151e-05,-0.12021068906799975,0.08720545956599683
5.65,0.07782012969255,1.99579203128815,11.17062473297119,-0.0007380841079752507,-0.1900264973417278,0.12990571895697312
5.658333333333333,-2.32657766342163,0.28725031018257,10.82117557525635,0.05392506726673986,-0.1348570264437564,0.12973804799921737
5.666666666666667,0.82395905256271,-1.96253418922424,9.25957870483398,0.041706226191725794,-0.1558542290381602,0.12861374461077005
5.675,0.08518350124359,-1.99384748935699,8.69350814819336,0.01757923091117964,-0.1263952232318148,0.11716739502182527
5.683333333333334,0.82556766271591,-2.0548689365387,7.65358543395996,0.03716103412642265,-0.11901482154763493,0.07755761756258847
5.691666666666666,-0.99087530374527,-3.1051664352417,7.60277032852173,0.03161221315956647,-0.09939814340567933,0.03626245860749469
5.7,0.15921570360661,-2.90565490722656,7.0689377784729,-0.0053150099873094025,-0.036476372860866205,0.004627219507472016
5.708333333333333,-0.68386471271515,-0.98180043697357,7.19623136520386,-0.009611632375259116,-0.021545705588040778,-0.02300488691940342
5.716666666666667,-2.05167651176453,-0.07766725867987,7.823326587677,0.00974038581099142,0.02284126687933713,-0.03468950412153151
5.725,-1.03347086906433,-0.49886897206306,8.3324670791626,0.013011695340449757,0.0683224074029525,-0.033864244595175584
5.733333333333333,-0.56129956245422,0.12440168857574,9.35819244384766,0.0036584564300298746,0.07166412529402705,-0.035736950345394945
5.741666666666666,-0.0492129959166,0.81189703941345,9.77300548553467,0.004300647038132146,0.08655880244143357,-0.031277376828543355
5.75,0.49677112698555,0.57234054803848,10.13442516326904,0.008616048092733114,0.0701300612823574,-0.027189303880784808
5.758333333333334,-0.55335944890976,0.67816972732544,10.96818923950195,-0.0003169603823547496,0.07841930830041875,-0.019791025727787813
5.766666666666667,1.78201401233673,1.294921875,10.49028968811035,-0.0021887699164493575,0.0725613442652747,-3.039958397899627e-05
5.775,0.4944543838501,0.97017574310303,10.76879215240479,0.017260931146050065,0.015228627145129323,0.007344853685113792
5.783333333333333,0.22021563351154,-0.15156304836273,10.35589504241943,0.02073408227870397,0.02137873162947659,0.019542240708893266
5.791666666666667,-0.32101958990097,-0.73770129680634,10.33314037322998,0.009906911401418923,0.0020320781263692502,0.01190344894084049
5.8,-0.16638228297234,-0.31719997525215,10.49979400634766,0.002306568501455412,0.008220629008099715,0.006343455180973545
5.808333333333334,0.37398639321327,-0.18251194059849,10.11135196685791,0.008372851030789863,-0.004194695618862008,-0.0057030512834853895
5.816666666666666,0.24207367002964,-0.33357283473015,9.98629188537598,0.008774526983538793,-0.004068626150165788,-0.003931381287715589
5.825,0.20701758563519,0.03217348828912,10.00174903869629,0.007250748391282178,-0.02667608361040214,-0.003468681755375221
5.833333333333333,0.65794694423676,0.0747401714325,9.61919212341309,0.012487076532541984,-0.02234034292304997,-0.005545912815751753
5.841666666666667,-0.09224496036768,-0.19257925450802,9.50112819671631,0.014940726947724319,-0.03599355839999159,-0.007657119205749825
5.85,-0.79053938388824,-0.05899664759636,9.42620944976807,0.005936636518517826,-0.023825227920121074,-0.008850302238929963
5.858333333333333,0.23012126982212,0.46219497919083,9.31386661529541,-0.00015155086838459654,-0.00454518478322192,-0.0036501855463398855
5.866666666666666,0.30775830149651,0.55416649580002,9.67799091339111,0.011060308784478192,-0.026196843611053143,-0.0009388108375572092
5.875,-0.78583991527557,0.14091816544533,9.65248966217041,0.012008954852791472,0.008572906443519743,0.006570110475536644
5.883333333333334,-0.21489286422729,-0.05772344395518,9.58022499084473,0.00908612307286198,-0.003907687996540974,0.00985415896559213
5.891666666666667,-0.09624865651131,-0.23366191983223,9.78184223175049,0.0102015204761171,0.024130340876665605,0.007862987279648126
5.9,0.52215039730072,-0.26715868711472,9.58134746551514,0.010799676859921859,-0.0023492620426064053,-0.0017157883456620658
5.908333333333333,-0.74152094125748,-0.33849397301674,9.7448902130127,0.004976143544542936,0.00875552803393411,-0.004008721670395751
5.916666666666667,0.39862802624702,0.19236867129803,9.49013614654541,0.005556418258044105,0.017186494753285115,-0.003423753135473431
5.925,0.05260215327144,0.19850577414036,9.87967205047607,0.012167433743597147,0.003103886682608864,-0.002695504193235848
5.933333333333334,-0.16588872671127,-0.07346685230732,9.90164470672607,0.013572074368072885,0.01743103223830058,-0.0009830689858485856
5.941666666666666,0.5601891875267,-0.15561725199223,9.76735687255859,0.008854773436728948,0.0021534529934212317,-0.0020671717755891008
5.95,0.18795526027679,0.23154467344284,9.94383239746094,0.006709590416737641,-0.0022200636197037237,3.732890270812445e-05
5.958333333333333,0.12420906871557,0.15005950629711,9.72405242919922,0.007872375962787993,-0.005346751018403233,-0.000611121153934822
5.966666666666667,-0.30672106146812,0.15802775323391,9.96522617340088,0.009230520499403858,-0.016798006129269835,0.00015713903664622028
5.975,-0.37191206216812,0.07571284472942,10.01135540008545,0.007334124578901883,0.014628683530561841,0.00592724887567535
5.983333333333333,0.85203951597214,0.03713040798903,9.41701126098633,0.01142465626933078,-0.009340719192478945,0.00413769616930457
5.991666666666666,-0.77770745754242,-0.34175568819046,9.97281646728516,0.0102846714393709,-0.0009262932002108801,0.0031783215149279917
6.0,0.53270798921585,-0.2012595385313,9.70924758911133,0.0036924317596514137,-0.000516345973660154,-0.0010259859308450062
6.008333333333334,-0.00276099727489,0.05413271486759,9.81871509552002,0.004702324291252773,-0.012031530344516381,-0.0030301231021232365
6.016666666666667,-0.82488733530045,0.13342197239399,9.83815574645996,0.008367262033541175,0.007569272860628701,-0.000329030789389566
6.025,0.56308609247208,0.01779627241194,9.6095085144043,0.00801185538384038,0.005410455704213059,0.0017808344948413268
6.033333333333333,-0.1086016446352,0.07963977754116,10.00860786437988,0.0075044503753691726,-0.006001235339857797,-0.0003075722843820676
6.041666666666667,0.06353154778481,0.01214552763849,9.6720027923584,0.009239685518623992,0.0010639853905003703,0.0015901664648796153
6.05,-0.07554117590189,0.02634392119944,9.76351642608643,0.008915797276394515,-0.012470536845756438,-0.0007362959019337113
6.058333333333334,-0.0052644922398,0.03015638515353,9.69165897369385,0.005203246687093932,0.0006428618599355974,-0.0007693777462110408
6.066666666666666,0.40580940246582,0.15948693454266,9.39291286468506,0.0086795285944746,-0.010262765899107788,0.0020188901474496603
6.075,-0.01276062335819,0.02967705763876,9.90071392059326,0.011288528166033065,-0.02002058605256351,0.003924228723623909
6.083333333333333,-0.29825925827026,-0.16904313862324,9.85955715179443,0.010784699699682087,0.00676346117216292,0.003888017535028487
6.091666666666667,0.1563468426466,-0.06435412913561,9.52320194244385,0.0072201246394896145,-0.011708309973154097,-0.0019799964222269994
6.1,-0.55426663160324,-0.06369606405497,9.7128381729126,0.008485731090157643,0.022161969386663635,0.0020521953955724174
6.108333333333333,0.66084402799606,0.0985232591629,9.51766586303711,0.00863929405606844,0.0008391179118671803,0.0006504616868481638
6.116666666666666,-0.91286009550095,-0.01828981935978,9.92647266387939,0.008212805972397624,0.010222755024621187,0.0018673391165187107
6.125,0.63437849283218,0.13609728217125,9.63529300689697,0.009458740921255948,0.017663051825895244,0.002753397778323256
6.133333333333334,-0.00817595236003,-0.178506270051,10.04063987731934,0.0077232836745273975,-0.003136522369381274,0.003520540575820653
6.141666666666667,-0.08963227272034,0.12150534242392,9.71552085876465,0.008621188201696337,0.013493167817806337,0.0009037170583000321
6.15,0.29422503709793,0.06672887504101,9.64531517028809,0.00553831292382061,-0.0027842444138126373,-0.0005185811499387272
6.158333333333333,-0.16593883931637,0.09511134028435,10.01214027404785,0.010410293580227827,0.0010253153942160172,-0.00038625354526447987
6.166666666666667,0.69971245527267,0.0142414001748,9.64645290374756,0.008944183868841845,-0.006791178333297056,0.0023152864529105617
6.175,-0.79307144880295,0.0972071364522,10.144362449646,0.010165532431292802,-0.02573951019226464,-0.001798046343720437
6.183333333333334,0.16316349804401,-0.09639171510935,9.58006000518799,0.008291710442069737,0.0223586708808958,0.005589723896278145
6.191666666666666,0.29893878102303,0.05016999691725,9.60767078399658,0.008435661060920936,-0.013984256803411556,-0.0016657184464625103
6.2,-0.38955813646317,-0.02371882647276,10.03330039978027,0.007449016053100727,0.009491599751799482,0.0038573945634588374
6.208333333333333,0.58570337295532,0.12531065940857,9.54640579223633,0.008902384723295126,-0.010018899405851342,0.00013031588100490308
6.216666666666667,-1.15276646614075,-0.01706666313112,10.14389133453369,0.007822752221093356,0.0031389808519774976,0.00011153964442303822
6.225,0.85278332233429,0.06949011981487,9.62876224517822,0.007791011189999527,0.019881999726743874,0.005043872100312283
6.233333333333333,0.16526643931866,-0.07728646695614,9.86538028717041,0.007118644157943983,-0.007949044313411917,0.0022041936243055046
6.241666666666666,-0.59100365638733,0.03647949919105,10.04594612121582,0.008010962288607627,0.005791344956445801,0.0021098654467774204
6.25,0.53360921144485,0.00241050799377,9.6478328704834,0.005510148434847186,-0.002348368167150739,0.0010177156973406028
6.258333333333334,-0.26301005482674,0.02543551661074,10.13338279724121,0.00849869683556635,-0.009529376067683896,0.0003793242549809024
6.266666666666667,0.61628895998001,0.06117111444473,9.64478588104248,0.00841643740709913,-0.009230744163323592,0.0033486486117669783
6.275,0.43350064754486,0.03576201945543,9.51822566986084,0.009245943947185703,-0.039304429395502626,0.0009647397926498053
6.283333333333333,-1.41014719009399,-0.03607178851962,9.92461967468262,0.007115067095675142,-0.01224700920502828,0.00201911368133224
6.291666666666667,0.77908051013947,0.09727158397436,9.00793361663818,0.005558653856943509,-0.015118875779893699,0.001976420010144095
6.3,-1.31841897964478,-0.04097142443061,9.85336208343506,0.008226440628970743,0.018424607706738563,0.0025506591787802005
6.308333333333334,1.27219033241272,0.07748674601316,9.53129959106445,0.006830295592402122,0.00806952582515684,0.004344235234961893
6.316666666666666,-0.48102152347565,0.02440549992025,9.79913711547852,0.0074510274679319664,-0.006615486683352027,0.00042693537900072894
6.325,0.30232205986977,-0.02659427002072,9.44659519195557,0.008063266356297739,0.01717554250330208,0.0030383937257389216
6.333333333333333,0.27823129296303,0.03961959853768,9.44359111785889,0.010498363069120074,-0.024432774027363092,-0.0009580339712302315
6.341666666666667,-1.40804731845856,-0.03809398785233,9.69572639465332,0.010312389120653817,0.03455874083141397,0.004134566955023803
6.35,0.80647134780884,-0.04587205499411,9.62751007080078,0.009896631183492304,0.03144323142721183,0.0020061492362952304
6.358333333333333,0.35411578416824,0.14237733185291,10.29656791687012,0.008784361954220731,0.015898758578285464,0.002121488558482148
6.366666666666666,0.67586499452591,-0.01815391518176,10.02828598022461,0.007965361896723729,0.00476178196333213,0.004536020804299002
6.375,-0.42587313055992,0.07220079749823,10.09908485412598,0.010291600859691628,-0.023283624178183072,-0.0006913670219576176
6.383333333333334,-0.53941017389297,-0.00238189660013,9.85386371612549,0.0074818743634956515,0.019816057361440032,0.005835379180743316
6.391666666666667,1.50204694271088,0.07103488594294,9.43108749389648,0.008327698486894037,-0.024858813222748438,0.0009258461974642964
6.4,-2.81436276435852,0.12882328033447,10.00089073181152,0.009857289220170113,-0.038111699411797,-0.001877621675114244
6.408333333333333,1.62663424015045,-0.12001087516546,8.98108005523682,0.005738145712928327,0.041207312089823867,0.010298977607851647
6.416666666666667,-1.2471911907196,0.01631563529372,10.54301834106445,0.009908699672479038,0.008583189262189582,-0.0012276068609755114
6.425,1.63958179950714,0.12140520662069,9.81862163543701,0.006163963324988728,0.025426122710989683,0.006155916625366906
6.433333333333334,0.24503494799137,-0.05143609270453,10.08844089508057,0.009525576901941326,-0.024274070432340287,0.0011715015469480443
6.441666666666666,-0.93180799484253,-0.1235224455595,9.99508953094482,0.006931328746108466,0.014914795456906906,0.0021152298698461354
6.45,1.34233832359314,0.24416944384575,9.39774131774902,0.00919654647015384,-0.016820360037669627,0.0005916742913234914
6.458333333333333,-1.23349356651306,-0.15349996089935,9.98667812347412,0.008869078564912305,-0.008973018829425684,0.0020904185191475137
6.466666666666667,0.67928403615952,0.05017720535398,9.22957706451416,0.009512163308544548,-0.007411686544907168,-0.0009535634236171824
6.475,-0.29695335030556,0.17627911269665,9.83927822113037,0.007109925946414528,-0.03698735025026825,0.0026912574395795085
6.483333333333333,-0.33038982748985,-0.07906037569046,9.64476490020752,0.011679028725028013,0.016909992053107645,0.0053442917555840954
6.491666666666666,0.62559509277344,0.13066942989826,9.22385215759277,0.0078021876240509,-0.0339527572507179,0.00021302060548077887
6.5,-1.81788766384125,0.00884816795588,9.84086608886719,0.007158655552579194,0.021867136648045727,0.005430796117187176
6.508333333333334,1.42913961410522,0.04037344828248,9.5317554473877,0.007964244097274026,0.03568955856155911,0.002857114118842598
6.516666666666667,-0.22504989802837,-0.08368110656738,10.21482467651367,0.00773401278073948,0.014794315505607981,0.0016532010691904853
6.525,1.06763386726379,0.13952346146107,9.71179294586182,0.005725627815507693,0.0012627003801582097,0.004709029527505162
6.533333333333333,-1.31030786037445,-0.08497577160597,10.26076793670654,0.011248963579088533,-0.0052112939068643645,0.0008795762442303991
6.541666666666667,0.90003508329391,0.02974867448211,9.54179191589355,0.006076787971626628,0.010101157794021171,0.0043761994098266725
6.55,-0.25180867314339,-0.07537665963173,9.92677974700928,0.008171900442232443,-0.01850932327713292,-0.0003022076337482488
6.558333333333334,0.28280207514763,0.10953139513731,9.56566047668457,0.008944853820303474,-0.007062985651607371,0.002905172213099633
6.566666666666666,-0.46614366769791,0.04917576536536,9.72166633605957,0.008825938476144936,-0.02323869581835559,-0.0007009787188312811
6.575,-0.62940728664398,0.02145852893591,9.99879455566406,0.006589333609209666,0.021206618602246406,0.004296847612315271
6.583333333333333,1.51565873622894,0.14390783011913,9.57610321044922,0.007348429186936631,-0.013782635743243725,0.002359767744973061
6.591666666666667,-1.02061057090759,-0.00047924046521,10.24701976776123,0.009579670280988946,-0.013137987432768318,0.003627162466701204
6.6,0.53341609239578,-0.00512143550441,9.38895797729492,0.004739429615378167,-0.00708936186952068,0.003915511032243065
6.608333333333333,-0.90577882528305,-0.05764476209879,10.00583267211914,0.008396321178193354,0.004114002878129955,0.002512660239273445
6.616666666666666,0.7278305888176,0.09541900455952,9.65091514587402,0.008887632267272306,0.003251190699809344,0.00221849901256334
6.625,-0.2052865922451,-0.080211982131,9.88514995574951,0.008378885795431838,-0.013350336038702058,0.00340676534062551
6.633333333333334,-0.30860939621925,-0.02348993718624,9.5985860824585,0.008300650757072923,0.005846778758565638,0.0020106197839082794
6.641666666666667,0.56827908754349,0.10667750239372,9.5410270690918,0.0087374216594134,-0.011765978854024558,0.001449121396389452
6.65,0.36354324221611,-0.02696621790528,9.50268077850342,0.008581176286912516,-0.013906022285201249,0.0028772313880457657
6.658333333333333,-0.23915523290634,0.03080720826983,9.3463830947876,0.008417778870468563,-0.015598564147379384,0.002776867925726922
6.666666666666667,-0.40730434656143,0.19564455747604,9.91273880004883,0.009049466116873267,-0.0003303719926846962,0.0020195608791343774
6.675,0.69288873672485,-0.02522073686123,9.71757221221924,0.007143902056259156,0.02586289361333016,0.006028952500991933
6.683333333333334,-0.53005439043045,0.02605070732534,9.96574783325195,0.007211407988406162,-0.005474608238010784,-0.000679073113549422
6.691666666666666,0.34995284676552,0.04639333859086,9.73385334014893,0.007460416151071832,0.02028188792858147,0.0059677065578526345
6.7,-0.13058945536613,-0.02872581779957,9.75243663787842,0.008142396050335409,-0.001724282503160331,0.002573459374722063
6.708333333333333,-0.3858028948307,-0.15111096203327,9.69367599487305,0.006281538246075051,0.015120664050953815,0.0035817862588858208
6.716666666666667,0.15034560859203,0.14594660699368,9.75172138214111,0.006172904160140523,0.0023354034620394243,0.00167376553619579
6.725,-0.4838182926178,-0.0907266587019,9.94400405883789,0.008202299489808055,0.020231148468031743,0.004936579997895623
6.733333333333333,1.1174099445343,0.08327339589596,9.6286563873291,0.007869692515900514,-0.00499894322033619,0.0010557151569959668
6.741666666666666,-0.52336645126343,-0.01394087355584,10.17309665679932,0.008319204979581532,-0.003335907570575222,0.0010411859097628452
6.75,1.14531326293945,0.15721233189106,9.75310897827148,0.009181791933536586,-0.008189112161074402,0.004740771078747601
6.758333333333334,-1.35358250141144,0.00963487941772,10.27415084838867,0.009615433621596295,-0.022213605583486725,-0.0009410460463451575
6.766666666666667,0.89463466405869,0.06454010307789,9.4340705871582,0.007656224550071246,0.0101002620980452,0.005049013769721506
6.775,-0.51307344436646,0.02347563020885,10.0559024810791,0.00787192759465131,-0.022278424427705647,0.00020944419339770013
6.783333333333333,0.25609999895096,-0.0210006069392,9.55466842651367,0.008354745696566367,-0.003089581294351028,0.00509751919181783
6.791666666666667,-0.92326748371124,-0.0831088796258,9.75152111053467,0.009146922208310598,-0.00814932391021014,0.0018201750277546688
6.8,0.35078254342079,0.01118690799922,9.70669555664062,0.008014537270281858,0.01766908763083461,0.0032485085532933883
6.808333333333334,1.51390886306763,0.07663425803185,9.12099933624268,0.010026275113714143,-0.0459829549743919,0.0006743790970725436
6.816666666666666,-1.28109574317932,-0.08552658557892,8.98719596862793,0.009558880979729538,-0.020678871620355255,0.0030864520800702616
6.825,-0.50549858808517,0.08330200612545,9.20993614196777,0.007569049716857752,0.02091938419511381,0.0028472788880865296
6.833333333333333,5.89656019210815,0.18938998878002,7.01110363006592,0.006787603351622825,-0.14082566146694997,-0.001643813296310858
6.841666666666667,-3.59362292289734,-0.05669995397329,6.0451078414917,0.012322560796499718,-0.17165952418604874,-0.004182848713200396
6.85,-2.97492957115173,0.12994213402271,4.67087507247925,0.006909200582222844,-0.09697534924873669,-0.0015769784859600252
6.858333333333333,-1.04882848262787,0.04218746721745,5.41155481338501,0.011035049325717193,-0.013399062523974721,0.0009611633155481504
6.866666666666666,0.3737145960331,-0.20001494884491,6.30792760848999,0.007985927013914968,0.021735930191278112,2.905842944714363e-06
6.875,-0.07128391414881,-0.03152269870043,7.75673484802246,0.00727310073923614,0.06286186606504326,-0.0032965666475504233
6.883333333333334,1.47281432151794,0.1654210537672,8.99558353424072,0.0047432298214181295,0.08421266571199303,0.00044973508730335746
6.891666666666667,1.17426216602325,-0.20432579517365,9.93642520904541,0.008761340174953749,0.08020349307271737,-0.0026081056961026233
6.9,0.66928642988205,0.17353676259518,10.16588592529297,0.008912891726033304,0.06817554655240227,-0.0018081048482847814
6.908333333333333,-0.51012307405472,0.02573504298925,10.12300491333008,0.00913351173580582,0.059476568039442915,-0.0006652145329824415
6.916666666666667,-0.90530782938004,0.04134475067258,10.16955184936523,0.007210289668807677,0.05506013565165608,-0.0006307913553728295
6.925,-1.12930917739868,-0.01627444475889,10.56913661956787,0.008285452533656638,0.05132992497537703,-0.002280863275301124
6.933333333333334,-0.25226375460625,0.23936919867992,11.13154220581055,0.0036899732770553644,0.039863243815985196,0.00229382746026383
6.941666666666666,0.31676363945007,-0.16906459629536,11.30318737030029,0.01073887668417585,0.009437506372751862,-0.00129913523267319
6.95,0.45345449447632,0.05481931194663,11.01594352722168,0.004316071006062598,-0.010668466241965024,-0.0016451541094943576
6.958333333333333,0.9412339925766,0.06222657486796,10.41588401794434,0.0074333689413993275,-0.03205367996392306,-0.0013460756575176746
6.966666666666667,0.55972522497177,0.01037645991892,9.25555419921875,0.011521220825981357,-0.04192729352933759,-0.0010362682943848107
6.975,-0.73034816980362,-0.19380627572536,8.24292945861816,0.008229570363400295,-0.025822661155518612,-0.0018266575103475652
6.983333333333333,-0.5856032371521,0.12870825827122,8.19974708557129,0.0075893916902778705,0.008878690911971902,-0.0023421094785147267
6.991666666666666,0.41571536660194,0.10439851135015,8.97250175476074,0.009832700753168135,0.029975557108685293,0.0005572512437510315
7.0,0.47751870751381,-0.10931242257357,9.72455883026123,0.007192408518652697,0.03072392410034896,-0.0009169052322753503
7.008333333333334,0.14944434165955,0.12722046673298,10.30553722381592,0.003745407599323636,0.027082452864423786,-0.0026449873563084594
7.016666666666667,0.29242968559265,0.20044411718845,10.64775848388672,0.00804873756419465,0.015028570692102049,-0.00041486490694733633
7.025,0.15958708524704,-0.08173553645611,10.45790672302246,0.006537475308912843,-0.002125735702249944,0.0005876508114754274
7.033333333333333,-0.83365678787231,0.00467094639316,9.99465274810791,0.004826828632660001,-0.010034544436958307,-0.0026335875184118327
7.041666666666667,-0.89889073371887,0.10595495998859,9.76768589019775,0.008332615972234919,0.009496293573220807,-0.0018434220313872118
7.05,-0.02577169239521,0.06667164713144,10.2196741104126,0.008744798407573593,-0.0031807802575983457,-0.0007617779192984743
7.058333333333334,0.59416520595551,-0.22401988506317,10.0992488861084,0.008107971572354277,-0.018616170132304724,-0.002008607848928432
7.066666666666666,-0.08833045512438,0.07141398638487,9.71177291870117,0.006425713048994591,-0.020593486098499095,-0.003927358458053285
7.075,0.57220596075058,0.0516506806016,9.57833576202393,0.008305568242413804,-0.012133457633752695,-0.00046538187391187733
7.083333333333333,0.59847837686539,-0.08420326560736,9.18207550048828,0.009344295734599002,-0.014778669434203626,-0.0032585674479693634
7.091666666666667,-0.29908898472786,0.0214227642864,8.71970176696777,0.0036877376781559593,-0.0012276068609755114,-0.00486974557765642
7.1,-0.65025782585144,0.22130896151066,8.85340976715088,0.00953116329844662,0.02069585551408826,-0.0018078810543278971
7.108333333333333,0.15607395768166,0.0027107258793,9.65056800842285,0.008809845076901461,0.034085761341221286,0.0024125201808000295
7.116666666666666,0.18239749968052,-0.08409597724676,10.24199104309082,0.006688802155775451,0.022424163837765573,-0.0018771743472749541
7.125,-0.1799798309803,0.18308417499065,10.5644416809082,0.005528254289219115,0.014627119963718675,-0.002093771787459469
7.133333333333334,0.12117630988359,0.01778911985457,10.66040420532227,0.01081487560348675,0.0012148656897466024,0.0015497082625537228
7.141666666666667,0.12167701125145,-0.11988879740238,10.43684864044189,0.007323842280380653,-0.015686634676568847,-0.00041933548706976084
7.15,-0.32020416855812,-0.00043632343295,9.80656242370605,0.006761896044873753,-0.02391776860681213,-0.0030578407834059807
7.158333333333333,-0.50394642353058,0.08431771397591,9.4011173248291,0.009757149161696697,-0.016526196210216303,-0.002318862474882184
7.166666666666667,0.02491334453225,-0.09515427052975,9.42184734344482,0.008713727848090175,-0.007793469932670055,0.00010751618082974922
7.175,0.34166285395622,-0.00922016147524,9.47653675079346,0.005372904092545594,-0.005245270016708991,-0.0034181654385964408
7.183333333333334,0.2816860973835,0.14856454730034,9.44801139831543,0.007891599096461015,-0.004183072117045649,-0.0006468853397836613
7.191666666666666,0.31846606731415,0.00236044893973,9.47235870361328,0.009719596509732016,0.002261863025324746,0.00023269093695593867
7.2,0.21400590240955,0.00524303410202,9.49832439422607,0.005330433435091246,0.00397452241678035,-0.0001193630864913611
7.208333333333333,-0.1832630187273,0.12854371964931,9.47662258148193,0.0071901729197532925,0.00915184073394887,-0.0006088858151097212
7.216666666666667,-0.40894949436188,0.02149429358542,9.69972705841064,0.008468743555384024,0.01671150124751797,0.00029840772029196555
7.225,-0.18077385425568,-0.05260219052434,10.09723091125488,0.005275222256593923,0.013258688967392364,-0.002863596211324039
7.233333333333333,-0.03139382600784,0.03847514092922,10.41631317138672,0.005719816194636666,0.005575865055636685,-0.001308523395664448
7.241666666666666,0.01582925394177,0.03682998195291,10.43459701538086,0.007642588853200735,-0.005573406312966331,-0.00014842149155730225
7.25,0.08104886114597,-0.08441784977913,10.27234840393066,0.0059992239250265585,-0.015048687961305218,-0.003005088347579187
7.258333333333334,0.09046198427677,0.01325429324061,9.83600997924805,0.007609732103251986,-0.02171223429936028,-0.0031112636908431873
7.266666666666667,-0.12081151455641,0.03900445252657,9.33474636077881,0.008196935196776493,-0.019041316752606105,-0.002900030803764715
7.275,-0.13645485043526,0.00096569384914,9.10222816467285,0.008024373281261014,-0.007960668075302579,-0.0016876241167629452
7.283333333333333,0.09659914672375,0.04294566810131,9.17420768737793,0.006902717969592794,0.0032230267309843537,-0.002794526712333866
7.291666666666667,0.20125952363014,0.09408847242594,9.40573787689209,0.007209842861116995,0.010636949394939534,-0.0007389781134680689
7.3,0.19665311276913,0.04943329840899,9.68336868286133,0.007457956888252696,0.0125355814344897,-0.00044794681624324206
7.308333333333334,0.19144593179226,0.03925490379333,9.95358276367188,0.006716296693287247,0.011341056937940299,-0.0021024889586917055
7.316666666666666,0.03704457357526,0.03470559418201,10.02413749694824,0.006803471006352132,0.0065084166844092736,-0.000938810707520057
7.325,-0.28735816478729,0.0033333147876,10.00874519348145,0.006390618099403044,0.003348424947847246,-0.001279017833433045
7.333333333333333,-0.30722877383232,-0.03282438591123,10.04569721221924,0.007092267940030498,0.0006073210779320112,-0.0011471372640144077
7.341666666666667,-0.17033779621124,0.00185973918997,10.03780651092529,0.006707579001906403,-0.002162170424727772,-0.0008125182901084428
7.35,-0.05657183378935,-0.00610137498006,10.02686214447021,0.006704002979934954,-0.006376313491368296,-3.6658325442634464e-05
7.358333333333333,0.11023961752653,-0.0026322461199,9.94723701477051,0.006067176144715637,-0.01119375292073982,-0.002276839405341604
7.366666666666666,0.26913294196129,0.03104328922927,9.72103691101074,0.007943010068918548,-0.013523793130044898,-0.0010139155563193905
7.375,0.11113380640745,0.05315263569355,9.41415119171143,0.007023421584811449,-0.01348534478210407,-0.0025298714379667947
7.383333333333334,-0.01838280633092,0.01678057014942,9.20580196380615,0.006228785810248258,-0.0039007585762202437,-0.0015081323908152804
7.391666666666667,-0.01467763353139,0.06240855529904,9.25828266143799,0.008559270746649408,0.004079802844291467,-0.002136688472381585
7.4,-0.01942001469433,0.0504059754312,9.45891094207764,0.005880307540570801,0.01236972371492939,-0.0019907257885133874
7.408333333333333,0.01258902624249,0.02283908054233,9.80331611633301,0.00785404540419894,0.018068305881210407,-0.0012669475239260055
7.416666666666667,0.08046948164701,0.00368371419609,10.12329006195068,0.005763627275163058,0.013173973396998008,-0.0008677293385686127
7.425,0.06163604930043,0.00233182683587,10.2573413848877,0.007910822750282822,0.002885949339500915,-0.0006987434450247563
7.433333333333334,-0.09611990302801,-0.03169424831867,10.16082096099854,0.007375475356311745,-0.003755466233925307,-0.0006252032683843824
7.441666666666666,-0.19550150632858,-0.02344701997936,9.99018955230713,0.006442030112157969,-0.005762286331942231,-0.0005384750152966414
7.45,-0.14713397622108,0.03108625486493,9.76690673828125,0.006691708746433878,-0.010347481469502146,-0.0028428082104361534
7.458333333333333,-0.06602074205875,0.01311116106808,9.65027236938477,0.007283382517608761,-0.008316968860533345,-0.001984914037605208
7.466666666666667,0.03691582381725,0.01934844069183,9.60005950927734,0.008012973703438692,-0.006328478540882383,-0.003673432289898123
7.475,0.21640221774578,0.04090706631541,9.54498291015625,0.007398051888334049,-0.003182121200819171,-0.0016152014794979692
7.483333333333333,0.20909190177917,0.04635042324662,9.5025520324707,0.006940045917340528,-0.0030953929152220555,-0.001502097106024521
7.491666666666666,0.10332997143269,0.0230750720948,9.4914722442627,0.008396097514273797,0.002661752007385258,-0.0016675067175226258
7.5,-0.01401949115098,0.02733822911978,9.51371765136719,0.007121773892373532,0.005469019760910881,-0.0013152291520654455
7.508333333333334,-0.11453854292631,0.02949825115502,9.65891265869141,0.0070155985491093574,0.0088887495465734,-0.0018132457374710911
7.516666666666667,-0.12126928567886,0.00683102430776,9.89685344696045,0.005655887324758498,0.011822979864027996,-0.0010344798282689671
7.525,-0.05886070430279,-0.00459924573079,10.12653636932373,0.006697072519317007,0.005380502944179345,0.0006918140247040266
7.533333333333333,0.01225281972438,0.00791819673032,10.19346618652344,0.005899084386701751,-0.000658955714309277,-0.00016496244620516784
7.541666666666667,-0.00645901728421,0.0202854629606,10.11582183837891,0.009331777837178368,-0.0058335909096832,-0.0016277188567699937
7.55,-0.01952010765672,0.02037129737437,9.94533443450928,0.008085618704251703,-0.01305528067646181,-0.000675049633701358
7.558333333333334,-0.02517085522413,0.01737425476313,9.6576042175293,0.007790118094766774,-0.011618005925659664,-0.0014019574376625621
7.566666666666666,-0.0545118264854,0.02466301620007,9.45926189422607,0.007785647417116573,-0.010410516203850168,-0.00023470267688005788
7.575,0.00649487413466,0.0202425159514,9.39145469665527,0.007624037231435342,-0.002517130136700734,-0.0014044160502957636
7.583333333333333,0.11687029898167,0.0222882591188,9.45878314971924,0.007802411808119241,0.0019540677922272836,-0.0002447613765001304
7.591666666666667,0.13010293245316,0.02502054721117,9.58884334564209,0.0066340388252660275,0.005269186451654555,-0.0021977110116754555
7.6,0.10120560973883,0.00086552329594,9.70776748657227,0.00845466105082301,0.007835492742136331,-0.0009300932111949401
7.608333333333333,0.02029975503683,0.0306856893003,9.84763336181641,0.007445439510980671,0.004328588123260318,-0.00022620868192814558
7.616666666666666,-0.07674293220043,0.01188798435032,9.88029956817627,0.007645719627927503,0.003960663836213195,-0.0011033261834880166
7.625,-0.15721948444843,0.01161621697247,9.97603416442871,0.007447675630028685,0.0026615286035400042,-0.003441411922080375
7.633333333333334,-0.11885879188776,0.0189550332725,10.02134037017822,0.006610121350023072,-0.00023470264437068256,-0.001496285355116342
7.641666666666667,-0.03126514330506,0.0371948108077,9.99248504638672,0.008953795175604053,-0.004552784675153063,-0.0008029067232719316
