Time (s),Acceleration x (m/s^2),Acceleration y (m/s^2),Acceleration z (m/s^2),Gyroscope x (rad/s),Gyroscope y (rad/s),Gyroscope z (rad/s)
0.0,-0.00354065722786,0.02027831040323,9.73793029785156,0.007152172419800536,-0.0009160109016896514,-0.0004577819819809092
0.008333333333333333,0.00386253511533,0.02087199501693,9.75622749328613,0.005921884062495004,-0.00014350392494306906,-0.002203522632546483
0.016666666666666666,-0.02358292229474,-0.00062945019454,9.74709320068359,0.007266618126606093,-5.7222743683963555e-05,-0.00057267443145857
0.025,0.00387684092857,0.01095100212842,9.74890327453613,0.009383860321543532,-0.002375191452829208,-0.0014305686042896902
0.03333333333333333,-0.0087479269132,0.02634392119944,9.73425388336182,0.005721604465696782,-0.0017743522723227345,-0.00017166826762474152
0.041666666666666664,-0.01776050962508,0.02866144105792,9.75622749328613,0.006522722852890022,-0.0009736809528944796,-0.0016308484611622172
0.05,-0.01767467521131,0.01818967983127,9.73609256744385,0.008153570923940784,-0.0006298972198428591,-0.0016599066955543308
0.058333333333333334,-0.00115160772111,0.02617225237191,9.73791599273682,0.00649411207637435,-0.00031517217631321024,-0.0012879589286591434
0.06666666666666667,0.00802548974752,0.01390512660146,9.75256538391113,0.0064654992192642435,-0.0015172967598494794,-0.0027753030585122344
0.075,-0.01381213963032,0.03090743348002,9.76538276672363,0.007953290806993776,-0.0006290030843127141,0.0007432251922172887
0.08333333333333333,-0.02658711746335,0.02056442387402,9.75256538391113,0.00752412083688166,-0.0015740726755245117,-0.0015736254777223744
0.09166666666666666,-0.01730272732675,0.03216633573174,9.76171398162842,0.005778827059025168,0.00022866747336247514,-0.00043006475582802313
0.1,0.00099424517248,0.02165165543556,9.7525577545166,0.007724400433679882,-0.00125845336642774,-0.00017211530288052597
0.10833333333333334,-0.00439899833873,0.03326787427068,9.76719951629639,0.007123561643285039,-0.0024610253428218754,-0.0018020695634941967
0.11666666666666667,0.01410540658981,0.02470592036843,9.76536846160889,0.007266618646754875,-0.00022933804250083946,-0.001145348992954292
0.125,-0.02066475525498,0.03441235795617,9.74339389801025,0.007667177320202711,-0.001402404505427547,-0.0014019574376625621
0.13333333333333333,-0.01138732582331,0.01120135188103,9.72144985198975,0.006579945966367192,-0.0006585086465441172,-0.001087679331860746
0.14166666666666666,0.01062912493944,0.01727411523461,9.7452335357666,0.00855413063768601,0.00020005611167979312,-0.0008024596555069464
0.15,-0.00036479497794,0.00877653807402,9.72695064544678,0.008582741934350293,-0.0013737932087632665,-0.0018311281879977669
0.15833333333333333,0.00157362548634,0.01866891980171,9.7488956451416,0.005864661469166619,0.00011377491822956279,-0.0008020125877419612
0.16666666666666666,-0.00392691092566,0.02465584874153,9.76904487609863,0.00778162406730566,-0.0006571675082677376,0.0004280530159040784
0.175,0.02175894752145,0.01062197145075,9.74341678619385,0.007381063833411823,0.001373569544843709,-0.00025973762647983574
0.18333333333333332,-0.01497090049088,0.02408362179995,9.78185653686523,0.007953290806993776,-0.0007430015933161327,0.000628779680467461
0.19166666666666668,-0.00209562922828,0.02103645540774,9.76172161102295,0.00832568603176558,-0.0031767569077876083,-0.0020582308104001544
0.2,-7.15284295e-06,0.01980622299016,9.7177734375,0.007066339049956478,-0.0023474737715464644,-0.001916067942460463
0.20833333333333334,-0.01628702320158,0.04056377336383,9.74336624145508,0.006665779336211249,-0.0012593475019577107,-0.0008011183871932402
0.21666666666666667,-0.01801795698702,0.01914816536009,9.75073528289795,0.006179386252621788,0.0003145015746656451,-0.00048773451444952067
0.225,-0.00339076807722,0.01603657379746,9.77272033691406,0.007037280425452909,0.002172452853286153,-0.002549988967244092
0.23333333333333334,0.00557892257348,0.03305327519774,9.75435924530029,0.007208949245735634,0.00019826790563825378,-0.002290251178217903
0.24166666666666667,0.00922716781497,0.02265305444598,9.75438213348389,0.008124959627276503,-0.0012597945697226962,-0.0017452939078934687
0.25,-0.0089625120163,0.00321877934039,9.77458190917969,0.008239405334082057,-0.0007725070905289597,-0.0008015655849953775
0.25833333333333336,-0.01257469784468,0.02029976807535,9.74707221984863,0.007438733754579499,-0.003290755026679396,-0.001084549922524251
0.26666666666666666,-0.01231004297733,0.02824657596648,9.75804424285889,0.007753459058183452,-0.002891984104142891,-0.002572788382963041
0.275,-0.00839028507471,0.00512143550441,9.77091217041016,0.007123561123136256,-0.002148535117968893,-0.002859796005284076
0.2833333333333333,-0.00641610007733,0.02577169239521,9.74522590637207,0.006808389531990406,0.0015716136727796793,-0.002292039449278019
0.2916666666666667,-0.01202392857522,0.03368273749948,9.76168537139893,0.007696235944706283,-0.0014578388276959924,2.8834899628911976e-05
0.3,-0.01007827185094,0.01596512086689,9.7470874786377,0.008840690932167756,-0.0028325259119149258,-0.0010568326313527888
0.30833333333333335,-0.00435608113185,0.00194557325449,9.71416187286377,0.008582295126659612,-0.0003451246762724463,-0.0025191420716804067
0.31666666666666665,-0.0336112678051,0.0045921402052,9.76176929473877,0.006494557843767813,-0.0016590126900615128,-0.0005145577026000386
0.325,-0.01152323000133,0.01971323601902,9.73608493804932,0.006723449257379099,0.0004316293954777818,0.0011133846880523606
0.3333333333333333,-0.00972786638886,0.01477062050253,9.73793792724609,0.006408277146084466,-0.0006893553470520744,-0.0025754705294788226
0.3416666666666667,-0.00966349057853,0.03185160830617,9.76718521118164,0.008210794037417951,-0.0017171296789943481,-0.0012580065587370595
0.35,0.00879799667746,0.01052183192223,9.75441074371338,0.007323393912243973,0.0018613039617652784,0.0002528083036868829
0.35833333333333334,0.00494976714253,0.04405435919762,9.74881744384766,0.0070953976744600475,-0.0014301217965988348,-0.0006576145760327228
0.36666666666666664,-0.01322560664266,0.01897649280727,9.74524784088135,0.006265667470453919,-0.002289803850378614,-0.001342499245434596
0.375,-0.00570796849206,0.0213583894074,9.75805854797363,0.008554576925228083,-0.002060913086953263,-0.00145828602549813
0.38333333333333336,0.01825405471027,0.02938387915492,9.75619125366211,0.007352452536747542,-0.002435990068129217,-0.003488352216887707
0.39166666666666666,0.00198133755475,0.0245342515409,9.77086925506592,0.008096795658451686,-0.002376532396050034,-0.002258063599507871
0.4,-0.00881230272353,0.02332542091608,9.76355171203613,0.0075236735090421945,-0.0006893553470520744,-0.0026617517473109535
0.4083333333333333,-0.02340410277247,0.0294267963618,9.76535415649414,0.007037280425452909,-0.00020206781909453702,-0.0022334753925801975
0.4166666666666667,0.00406974973157,0.02442698925734,9.73424053192139,0.007323393912243973,-0.001091255873980977,-0.0033475308123172755
0.425,-0.00499268434942,0.02137269452214,9.74340915679932,0.006808836339681086,-0.0009182463055333283,-0.0023461328283256385
0.43333333333333335,0.00972784310579,0.00725298421457,9.73246479034424,0.007495510580514597,-0.0007421075878233144,-0.00017256235439091082
0.44166666666666665,0.00979224219918,0.02449848689139,9.7745246887207,0.007552285325855084,0.0005442867011860702,-0.00046046432355241907
0.45,-0.02136554196477,0.01768182776868,9.75442504882812,0.007009564304615991,-0.002631352439661036,-0.0005409338554949468
0.4583333333333333,-0.00832590926439,-7.15284295e-06,9.76363754272461,0.007638566543687216,-0.00017032708058438626,-0.0002311262485423788
0.4666666666666667,0.00263939914294,0.04270247370005,9.75431728363037,0.008239852141772913,0.00017233883676310587,-0.0006607438553320657
0.475,-0.01018564868718,0.03232369571924,9.74154281616211,0.0073233949525411905,5.565807152500409e-05,-0.0016616952266887506
0.48333333333333334,-0.00650908704847,0.01279643643647,9.74711513519287,0.006836553500815221,0.0005983800477244889,-0.002034536869039779
0.49166666666666664,-0.01208830438554,0.04075689986348,9.73236560821533,0.005693439456574573,-0.0006276620110549106,0.00011377491010226258
0.5,-0.02300354279578,0.02476314269006,9.73975467681885,0.005436385114435688,-0.0016554365380527381,0.0011169613602097436
0.5083333333333333,0.00095132814022,0.0124602522701,9.75445365905762,0.005549936165562664,-0.0007747423643354843,-0.0018311279279234623
0.5166666666666667,0.00283252587542,0.02755990438163,9.75254344940186,0.008009172977250121,2.1682057176416427e-05,-0.004551443731932237
0.525,0.01562896184623,0.0318158455193,9.73787307739258,0.006178939444931107,0.0005728980953783021,-0.0004895227530002608
0.5333333333333333,-0.00635887729004,0.01225997321308,9.76177787780762,0.008067736513799332,-0.0007997773139354366,-0.0005445101375406987
0.5416666666666666,-0.0044848327525,0.02559287287295,9.72876071929932,0.007867010629459038,0.00016965651144619647,-0.0020340898012747933
0.55,0.01380488462746,0.02627237327397,9.73424530029297,0.005864214661475937,0.0008581177067135254,-0.000976363294466164
0.5583333333333333,-0.0026966216974,0.0030900281854,9.77097702026367,0.007208949245735634,0.00011377491822956279,-0.001261582710745659
0.5666666666666667,0.00458497228101,0.02560002543032,9.75621318817139,0.00755317946138523,-0.0031208749976053946,-0.002226769376104721
0.575,-0.00065090868156,0.02065741084516,9.74343776702881,0.0062942787671182,-0.0012602416374878555,-0.0014868974521995626
0.5833333333333334,-0.00056507461704,0.02290340326726,9.72511291503906,0.007409228842533857,-0.0012937708096044747,-0.0037185850938682534
0.5916666666666667,0.00140911003109,0.00536463223398,9.75998973846436,0.007438733754579499,-0.0014274392599715965,0.00011556312427110213
0.6,-0.00765354186296,0.02790324017406,9.75256538391113,0.005664381352219612,0.0001446215455916437,-0.00011668076117445168
0.6083333333333333,-0.02230256423354,0.00819000508636,9.74900341033936,0.007523226701351515,0.0008563294356534101,-0.0019786553489691957
0.6166666666666667,-0.02055727131665,0.02707350999117,9.74340915679932,0.007122667507754895,0.000539369118317411,-0.002636269925001919
0.625,-0.00412009935826,0.02404070273042,9.74891567230225,0.005749768434521598,-2.8164320331509673e-05,-0.0006026270614549583
0.6333333333333333,0.00319732073694,0.0263153091073,9.74341678619385,0.006550886821714838,-5.9905060873572774e-05,-0.002033642473435329
0.6416666666666667,0.00504275411367,0.02134408429265,9.73977565765381,0.006895117557513042,-0.001919197286778382,-0.0019428910981017801
0.65,-0.00760347209871,0.01281074155122,9.75447463989258,0.006207997549286068,-0.0007456839348876425,-0.001659906825591483
0.6583333333333333,-0.03318947181106,0.02611495926976,9.75625705718994,0.004661641904858715,0.0011375256971778963,-0.0033524482976581577
0.6666666666666666,-0.02961992286146,0.03381863981485,9.75621318817139,0.006122610987132691,-0.0005963683728191204,0.0006860024688515756
0.675,-0.0075891665183,0.02148714102805,9.74894618988037,0.006494558363916422,-0.0026367169927669037,-0.0027989971299097628
0.6833333333333333,0.00908411014825,0.02193061634898,9.73062038421631,0.006722555121848954,-0.00017658581798437434,-0.002977370666296268
0.6916666666666667,-0.02017810195684,0.01889064535499,9.75079250335693,0.006723449257379099,-0.001429227531031712,-0.0005708862904356067
0.7,0.00190265628044,0.02304646000266,9.73795223236084,0.006722555641997563,0.0005460748747184087,-8.985760553313449e-05
0.7083333333333334,-0.00179546570871,0.0255857091397,9.76723480224609,0.008124065491746532,0.000572003959848157,-0.0014064278552384586
0.7166666666666667,0.00548617355525,0.02630103938282,9.77455234527588,0.007153961211009261,-0.004204977917383236,-0.000878011442034113
0.725,0.00033598038135,0.02127263881266,9.75444793701172,0.006982292910875145,-0.0027963147233196766,0.0016355424126206942
0.7333333333333333,-0.00128770200536,0.03464122116566,9.75254249572754,0.008352957945655036,-0.00031785451788472004,-0.0025486477639491364
0.7416666666666667,0.01335435733199,0.03698734939098,9.72139263153076,0.006608557263031298,-0.0016625891021444165,-0.0022866746360976726
0.75,0.01170205138624,0.01761029846966,9.76179218292236,0.008124959627276503,-0.0013737930787261143,-0.0015155087488638427
0.7583333333333333,0.0026683146134,0.01453451998532,9.75082874298096,0.0068378954843332646,-0.0013201468974806325,-0.0024878488885748235
0.7666666666666667,-0.01006404962391,0.03156549483538,9.75256538391113,0.0090400774337334,-0.0006017329909435639,-0.0017466351111885992
0.775,-0.01004273351282,0.05420427024364,9.74144840240479,0.008239852141772913,-0.0020331956657446484,-0.0019138326036353623
0.7833333333333333,-0.00983515940607,0.03125792369246,9.7727222442627,0.00944063662733002,-0.00040011222335941174,-0.0014900267965174815
0.7916666666666666,-0.0061085219495,0.00451344344765,9.76372241973877,0.008554130117537402,9.008112316093945e-05,8.158712008190151e-05
0.8,0.00301130861044,0.02353284694254,9.7654390335083,0.007352005208908078,0.0006605203864682365,-0.0002914783649899865
0.8083333333333333,-0.002553564962,0.02758136205375,9.73062705993652,0.008552788654167968,5.2081639123674914e-05,-0.0030363820508335533
0.8166666666666667,-0.03550650551915,0.01919827610254,9.74901103973389,0.008237618103319334,0.0017119886597708862,-0.0028410201994505174
0.825,0.00832603964955,0.0164658613503,9.78196430206299,0.006493664228386452,0.0007436721949636978,-0.0011207611761380755
0.8333333333333334,0.00278245587833,0.00585102569312,9.76006889343262,0.005321045272100162,-0.0012620299085477965,-0.001829339786900499
0.8416666666666667,0.00105146795977,0.01185941323638,9.77101993560791,0.005892825437991435,-0.0002619729002863603,-0.002347920839311449
0.85,0.01020710729063,0.0288474150002,9.77455997467041,0.007466004108023128,0.00045353493574106467,-0.0024073787714649366
0.8583333333333333,0.00650193402544,0.02936241962016,9.75991153717041,0.006522276045199341,-0.00031472510854822506,-0.0010031864501074811
0.8666666666666667,-0.0099140740931,0.01725267991424,9.79114627838135,0.009011466137069121,-0.0009481989355297164,-0.00289019609315708
0.875,-0.02266020700336,0.00865493994206,9.76740741729736,0.005692992648883893,-0.00034244236721031184,-0.000658955714309277
0.8833333333333333,0.00112299632747,0.01791071891785,9.70873260498047,0.006179834100609861,-0.001314334886498323,-0.0004846052026408025
0.8916666666666667,-0.00241032871418,0.02427670918405,9.76363182067871,0.0046057607748995885,-0.0011167376962900116,-0.0010854439930356454
0.9,-0.00229606265202,0.01555743347853,9.77285099029541,0.007037280425452909,0.0004016768955185457,-0.0007193077819929089
0.9083333333333333,0.00678804796189,0.02322528138757,9.73799514770508,0.007837952004955469,-0.00011668076930175187,-0.001948255911281952
0.9166666666666666,-0.01880482397974,0.00748187350109,9.75826644897461,0.007036833097613619,0.001573849141641932,-0.0011529490149225867
0.925,-0.00062229734613,0.00253925914876,9.75096988677979,0.008383356993230649,-0.0013997220988374612,-0.0008570001023195512
0.9333333333333333,-0.00239588762634,0.04150791466236,9.72873306274414,0.007008669128788628,-0.0008055889998248654,-0.002517800868385451
0.9416666666666667,-0.01512826327235,0.04047078639269,9.76170635223389,0.005606712471349154,0.0003426659661112933,-0.001148031399544378
0.95,-0.01328267809004,-0.0012660670327,9.75101470947266,0.006436888442748572,-0.000572674496477146,-0.0013165702253234237
0.9583333333333334,0.00871216226369,0.01012842543423,9.73077774047852,0.008440578546261818,-0.0013107586044523965,8.695175446094539e-05
0.9666666666666667,-0.01681633293629,0.01820398494601,9.74355983734131,0.008008278841720149,0.002539929812493987,-0.003073934442723932
0.975,-0.01334720477462,0.01899079792202,9.76186370849609,0.006979610504285059,0.00013746872142566087,-0.002778432532867306
0.9833333333333333,-0.00422732997686,0.03412621468306,9.74894618988037,0.006380559984950156,-0.0017448467100913316,-0.0009687632724978691
0.9916666666666667,-0.00771791767329,0.02376889623702,9.76549053192139,0.006980505159963811,-0.00017345645741168053,-0.001690306523353031
1.0,0.01423407904804,0.02595767006278,9.73250770568848,0.006951893343150923,-0.0005699922199242123,-0.0006298972848614353
1.0083333333333333,-0.02233817800879,0.03579998016357,9.75626468658447,0.007895621405974709,-0.00011757486419522136,-0.002148535378043197
1.0166666666666666,-0.00032903076499,0.01816106773913,9.75638484954834,0.006178492117091817,0.0011460198546761615,-0.0006075446118145911
1.025,-0.02238106168807,0.01504233572632,9.76559162139893,0.008699422719906645,-0.004438339488496115,-0.0023608855444227634
1.0333333333333334,0.00175959931221,0.02294632047415,9.74537658691406,0.007867457437149719,-0.0009173521700031833,-0.0017739052045577495
1.0416666666666667,-0.02016361989081,0.03260976448655,9.73249530792236,0.008125406955115965,-0.0016889651900207484,-0.0016849417101726845
1.05,-0.00169535644818,0.02238840609789,9.74172019958496,0.007867457437149719,-0.0006889082142685131,-0.001889244786819146
1.0583333333333333,0.00384822953492,0.01376922242343,9.72714424133301,0.008180394989842164,0.0015447909072498183,-0.0014690153917843436
1.0666666666666667,-0.01639448292553,0.02941965125501,9.77464485168457,0.006322443256091624,-0.00043051175857460684,-0.0014891326609875108
1.075,0.01110836490989,0.01147316023707,9.75096321105957,0.00829662740726201,-0.0004895227204908854,-0.002262086949318783
1.0833333333333333,-0.01811815053225,-0.0024820365943,9.75843811035156,0.008181288085074918,-0.00023157330005276361,-0.00217714680474463
1.0916666666666666,0.02214509062469,0.01095099095255,9.7436466217041,0.008211241365257242,0.0009278578723698395,0.0015376379530466834
1.1,-0.01818252727389,0.00808271300048,9.7675142288208,0.006236162038259668,-0.0009799395765119159,-0.0028311847086199696
1.1083333333333334,-0.02181617170572,0.04154371097684,9.76723575592041,0.0073824058169298665,-0.003094499039766389,-0.002422131747636541
1.1166666666666667,0.00409142626449,0.0256715528667,9.76369476318359,0.006439570849338832,-0.004495115274133822,-0.0018436454352326393
1.125,-0.00467080622911,0.00967064406723,9.76017570495605,0.007323393912243973,-0.0004908638587674396,-0.002404696624949155
1.1333333333333333,-0.0046638213098,0.02484897896647,9.75272846221924,0.008182182220605062,-0.00025616121439675705,-0.0011471372640144077
1.1416666666666666,0.01183788105845,0.02568586356938,9.76918697357178,0.008496907524209016,-0.000770271816722435,-0.0009736808228573274
1.15,-0.00274669169448,0.01322560664266,9.73269462585449,0.006779777715177516,0.0006350383691034734,0.0001942444095355895
1.1583333333333334,0.00453490251675,0.02507071383297,9.76737117767334,0.006123057794823372,-0.0014886854631853737,-0.0012553240221096467
1.1666666666666667,-0.01366908289492,0.02916214056313,9.76370239257812,0.007552732133545765,-0.0010925968172018027,-0.002602740882922452
1.175,-0.00804694835097,0.01893357560039,9.7784366607666,0.005234540390348299,-0.0010157037623609298,-0.004175472485188985
1.1833333333333333,0.00301829143427,0.02681599743664,9.79118919372559,0.006235714710420203,0.00022553811278995577,-0.001864209772200792
1.1916666666666667,0.01581493578851,0.01246740482748,9.76567649841309,0.007038621368673559,-0.0014900267965174815,-0.001742164433538398
1.2,-0.00789666175842,0.02016386203468,9.74731636047363,0.008124959627276503,-0.0005132165318142837,-0.0010604090434358673
1.2083333333333333,-0.02611485309899,-0.00113021419384,9.75301551818848,0.007210736476498357,-0.002638505263827019,-0.0027386448021518264
1.2166666666666666,-0.00215300568379,0.03248105943203,9.75453186035156,0.005950495879307893,-0.0007452369321412334,-0.0014305687343268425
1.225,-0.00761062512174,0.03830347582698,9.73983287811279,0.00798234995164613,-0.0006553792372076222,-0.0008878466727903563
1.2333333333333334,-0.0092913499102,-0.00668791308999,9.75490570068359,0.0075236735090421945,-0.00017166825137014116,-0.0014336979486076092
1.2416666666666667,0.02728809602559,0.02333257347345,9.76008987426758,0.006638509502916404,-0.0019482557812447996,-0.0017680933236124176
1.25,-0.00183836359065,0.03318203240633,9.78200531005859,0.007009116456627917,-0.00011131613492253345,-0.0006611909881158016
1.2583333333333333,0.0091771716252,0.00421299831942,9.75480556488037,0.007955527966339183,-0.002830291093238608,-0.0010496799372239581
1.2666666666666666,-0.0290975663811,0.03595731034875,9.75820255279541,0.008039573065123125,-0.001436827553000007,-0.0027726214321450613
1.275,-0.01797509379685,0.02368306368589,9.74549770355225,0.00832568603176558,-0.0013147820843004605,-0.0012571122931697622
1.2833333333333334,-0.00504275411367,0.02824657596648,9.76558303833008,0.007092267940030498,0.0020021258864843187,-0.0015016500382595357
1.2916666666666667,0.00758894532919,0.02120817825198,9.73268604278564,0.007466228292091469,-8.717529647082547e-05,-0.0016630362999467284
1.3,-0.01251044962555,0.02392632141709,9.76564693450928,0.006611686997460848,-0.0034043065979549813,-0.0010742676890215985
1.3083333333333333,0.00055076892022,0.03538511320949,9.75637054443359,0.008207216975149112,0.0025716711036619473,-0.0021918993908046033
1.3166666666666667,-0.01979892328382,0.02853266336024,9.74180889129639,0.00846963769091417,-0.001889691854584131,-0.001912044462612399
1.325,0.00413413625211,0.03831775486469,9.73071193695068,0.0060349883059313,0.000539369118317411,-0.0019236678343914312
1.3333333333333333,0.02421952597797,0.03135806322098,9.71428298950195,0.007438286946888818,-0.0008020125877419612,-0.0015736256077595265
1.3416666666666666,0.00970640778542,0.01396950241178,9.74926090240479,0.007440074697800325,-0.00277575012627722,-0.001420733503570599
1.35,-0.01575056090951,0.02529245242476,9.72720146179199,0.00512210661852259,-0.0019223266310964755,-0.0019674790449549745
1.3583333333333334,0.00090841104975,0.03715901821852,9.76918792724609,0.007436498675828702,-0.00012830413295348365,-0.004152225741630747
1.3666666666666667,0.00829014461488,0.01210261043161,9.76578330993652,0.007782518202835806,-0.0009692104052814305,-0.0007716130850361414
1.375,-0.01179503835738,0.01429853308946,9.74380302429199,0.008039572544974515,-0.0014667799229220908,-0.003058734658861647
1.3833333333333333,-0.0007370354142,0.04810285940766,9.75993156433105,0.0073224997767138275,0.00010975143838167341,-0.002236604606860965
1.3916666666666666,-0.00249634217471,0.00272523309104,9.74210739135742,0.00829662740726201,-0.0007734011610405287,-0.0017461879133864615
1.4,-0.01344734430313,0.01812530495226,9.75111293792725,0.006663097449769772,0.0016574480829211291,-0.0016152014794979692
1.4083333333333334,-0.00080111843999,0.02587898634374,9.73820209503174,0.007295677271258446,-0.000337524816850679,-0.00023157333256196443
1.4166666666666667,-0.00987795647234,0.00816137809306,9.74024200439453,0.007324735375613233,-0.0010559385608413943,-0.0009142228907038405
1.425,-0.00246773078106,0.01628702320158,9.75845909118652,0.008924736551100482,8.471649690919576e-05,-0.0018651040377679145
1.4333333333333333,0.01396950241178,0.03542803227901,9.76373767852783,0.009011466137069121,-0.0003719478969323396,-0.0018060930433422607
1.4416666666666667,-0.02075014449656,0.01592222042382,9.76214981079102,0.007436722339748435,-0.00027046691149287296,-0.003807995005832542
1.45,-0.03722339496017,0.02198068611324,9.76212120056152,0.006782013314076921,-0.0013371348223658807,0.0001177983899503265
1.4583333333333333,0.00135904015042,0.02088630199432,9.77124118804932,0.007809341748588579,-0.0004050297737190445,-0.002348368167150739
1.4666666666666666,0.00321162655018,0.01387651544064,9.74202919006348,0.00792557364585964,-0.000907517004265516,-8.583412568507058e-05
1.475,-0.00956335105002,0.0198205281049,9.72734451293945,0.007039516544500922,-0.002291592641587338,-0.001823081228301639
1.4833333333333334,-0.00019306653121,0.02263159863651,9.76208686828613,0.008353404753345717,9.052818279862449e-05,-0.0008069302031199955
1.4916666666666667,-0.00019999915094,0.01771751046181,9.75299549102783,0.006466840682633678,-0.0019522790010185593,-0.0024248138941523226
1.5,-8.583411545e-05,0.03273141011596,9.73818111419678,0.008182629028295745,-0.00125845336642774,-0.001514167545568713
1.5083333333333333,-0.00911974627525,0.02048569917679,9.73285102844238,0.007412805384654088,-0.002304110278933667,0.0009810573109430424
1.5166666666666666,-0.00158077827655,0.0288474150002,9.76937389373779,0.008555024773216156,-0.0015155087488638427,-0.0015132735400758947
1.525,0.00585817825049,0.02203075587749,9.75112724304199,0.007753905865874133,-0.0017488701899393952,-0.0021409354861120547
1.5333333333333334,-0.01600069738925,0.03363985568285,9.7546911239624,0.007121326564534242,0.0009993863090860943,-0.001670188994075559
1.5416666666666667,-0.0032542720437,0.03611470386386,9.75831031799316,0.005520877541059095,-5.901096191645319e-05,-0.0013764753552792228
1.55,-0.04355366155505,0.02889033220708,9.73646450042725,0.006268796684734687,-0.0036318565481968336,-0.0008127418890095989
1.5583333333333333,-0.00843320228159,0.0203498378396,9.73837375640869,0.006609450878412835,-0.000938810707520057,-0.0003419953319545274
1.5666666666666667,0.0080752549693,0.04302445799112,9.74907302856445,0.00678201383422553,-0.0024963426559616326,-0.0025079661577778163
1.575,-0.01545696612448,0.01409113407135,9.73845958709717,0.005346974162174181,0.000528639817049599,-0.0034400707187852444
1.5833333333333333,-0.00628734892234,-0.001752446522,9.75329494476318,0.007292100208989606,0.002488071772271468,-0.001536520153596981
1.5916666666666666,-0.01211691554636,0.04627174139023,9.73991870880127,0.007038621368673559,-0.0008838231929422925,-0.0008578941728311202
1.6,-0.02478449605405,0.02142992801964,9.76038455963135,0.008410178458388812,0.0006019565248261438,-0.0013822868461129231
1.6083333333333334,0.0008082712302,0.01851155795157,9.76039791107178,0.00866857530419435,-0.0006026270614549583,-0.0019478087134798146
1.6166666666666667,-0.0046421950683,0.03225217014551,9.77855110168457,0.007323393912243973,-0.0005199222882152813,-0.002262086949318783
1.625,-0.01378377340734,0.03630067780614,9.76386547088623,0.007352005208908078,-0.00014573918249499325,-0.001864209772200792
1.6333333333333333,-0.00643027713522,0.02023539505899,9.74758815765381,0.008067736513799332,3.241132187120318e-05,-0.0008927642881683907
1.6416666666666666,-0.00824722833931,0.03602886945009,9.78768539428711,0.0076086137836535,-0.00026867870545133364,-0.0032934374332696565
1.65,-0.01376922242343,0.03991286456585,9.75652027130127,0.008040466680504486,-0.0022428635555712816,-0.003396259378184549
1.6583333333333334,-0.00806828774512,0.03519909828901,9.76573371887207,0.007497744618968175,-0.0026912574395795085,-0.0017627289005437024
1.6666666666666667,-0.00233895797282,0.04157231748104,9.78579044342041,0.007671202230459626,-0.00316781607263564,-0.00030041946021608476
1.675,-0.0112156579271,0.01994212530553,9.76594066619873,0.00826801767104373,-0.0012378890294595878,-0.0028307379009292885
1.6833333333333333,-0.01483489107341,0.03507754579186,9.75110721588135,0.006236162038259668,-5.588158915280905e-05,-0.0009481988054925643
1.6916666666666667,0.00176675221883,-0.00266801053658,9.76438903808594,0.007923338567108845,0.0009823983191824444,-1.2070424305372978e-05
1.7,0.00153786118608,0.04343206062913,9.73816680908203,0.005291986127447809,-0.0006911434880750376,-0.0017166824811922106
1.7083333333333333,-0.00388384587131,0.03271711990237,9.72733116149902,0.00803689013838443,0.0006833200622614898,-0.002070301249944346
1.7166666666666666,0.00354065722786,0.00857625901699,9.79173374176025,0.006611015485553216,-0.002114112070396433,-0.0007921774220042941
1.725,-0.00547192478552,0.01636570505798,9.78800010681152,0.008582295126659612,-0.00034065419367797326,-0.0012910881429399103
1.7333333333333334,0.00727444142103,0.02744545787573,9.73838806152344,0.006122163139144794,-0.0006030741292201181,-0.0015454612488230793
1.7416666666666667,-0.00723152421415,-0.00129466457292,9.74611377716064,0.007347535051406486,0.003006205886954586,-0.001083655786994106
1.75,-0.00388364586979,0.02492051571608,9.74394035339355,0.00755094386248565,0.00016429186081220312,-0.0025817294781893137
1.7583333333333333,-0.00022173812613,0.02202360332012,9.75497531890869,0.00806997263284752,-0.002001008217071768,-0.0013371348223658807
1.7666666666666666,-0.00554345315322,0.0189550332725,9.75136375427246,0.009327532383893725,-0.0011149494252298963,-0.0017443996423263464
1.775,-0.02553564868867,0.00708131445572,9.76986122131348,0.00680749591660887,-0.0007282488772190072,-0.0033189192555786906
1.7833333333333334,-0.00904834643006,0.02411938644946,9.76596927642822,0.006122610987132691,-0.0009759160316452759,-0.0016858358457028297
1.7916666666666667,-0.01992782019079,0.00978508871049,9.75518989562988,0.005951389494689255,-0.0012848294543038978,-0.000796647904598767
1.8,-0.00887667853385,0.02866144105792,9.75858783721924,0.006464158796192201,-0.0001770328694947592,-0.002063595233469044
1.8083333333333333,-0.0179607886821,0.01844718120992,9.77888774871826,0.007756140944624929,-0.0018423042319375092,0.0010646560571665113
1.8166666666666667,-0.02325389161706,-0.00486393319443,9.77005386352539,0.006607662607352718,0.00022777335408710506,-0.0014086631940635594
1.825,-0.02337549068034,0.03039242886007,9.76409530639648,0.007210736476498357,-0.001487791457692381,-0.001368428395583095
1.8333333333333333,0.0115375360474,0.01983483321965,9.74588489532471,0.005377820537589258,5.834038058713858e-05,-0.0007483662114407507
1.8416666666666666,0.00052931037499,0.02000650204718,9.72941875457764,0.006520934581829907,0.0008268240034591592,-0.0016129661406728683
1.85,-0.0050356015563,0.04122183471918,9.76943111419678,0.006896906348721766,-0.001508802992462671,-0.00022397342437622143
1.8583333333333334,-0.01040023379028,0.026715869084,9.74034786224365,0.00689690686887055,-0.002262534017083768,-0.001677789016043854
1.8666666666666667,-0.01565740816295,0.02029264159501,9.76609230041504,0.007664495433761235,0.0011460197246390095,-0.0012155364214313197
1.875,0.01713803783059,0.03362552821636,9.75121212005615,0.006550887341863622,-0.0006594027820742621,-0.001488238525457366
1.8833333333333333,-0.00108021171764,0.02497060038149,9.75318622589111,0.005636664191085477,-0.0012034658518499757,-0.0013120998077475268
1.8916666666666666,-0.0010157036595,0.04202295094728,9.76029014587402,0.007296124078949126,-0.0016684007230154435,-0.0026832107399578594
1.9,-0.00814708787948,0.02811782620847,9.7733154296875,0.006608109935192008,-0.0005516630267254322,-0.002404696624949155
1.9083333333333334,0.00645901728421,0.0277887955308,9.7092113494873,0.007664942241451916,0.0013798281034425694,-0.0005015931275258764
1.9166666666666667,-0.01004259195179,0.02930519729853,9.775146484375,0.007837952004955469,-0.0009003641800995332,-0.0034329176345449576
1.925,-0.00263910461217,0.01871903240681,9.75697994232178,0.00586197854242775,0.0007888246088223714,-0.0028141966536977437
1.9333333333333333,0.0045706667006,0.03006339818239,9.74766540527344,0.006437336810885254,-0.0011252317237511245,-0.0025718947675816796
1.9416666666666667,-0.02650105580688,0.03389731422067,9.72933959960938,0.007751223979432655,-0.0004130767334151723,-0.0032934374332696565
1.95,-0.00437038717791,0.01694508455694,9.77534675598145,0.007867010629459038,-0.0005208164237454263,-0.0023769789436664107
1.9583333333333333,-0.01168774534017,0.02297493070364,9.769775390625,0.006952340670990213,-0.0004792405520069837,-0.0004309588588487928
1.9666666666666666,-0.0043419143185,0.01206680573523,9.73514652252197,0.005375138651147781,0.0015134969439211477,-0.0014462155859539382
1.975,0.01927691139281,0.03840361535549,9.74755096435547,0.005637110998776158,-0.0004443703716509626,0.0006855552710494382
1.9833333333333334,0.01026432961226,0.02100074663758,9.78079032897949,0.008870196884510791,-0.001751105398727344,-0.00259737632981641
1.9916666666666667,-0.02444115281105,0.02105082944036,9.74238777160645,0.007922445471876092,0.0006860024688515756,-0.0015848020418107256
2.0,0.00660202279687,0.02509932219982,9.71848773956299,0.008611353231014572,6.504616543386141e-05,-0.0006656614707102747
2.0083333333333333,-0.00251084100455,0.01881915330887,9.74423789978027,0.007952843999303096,-0.0010671148648554413,-0.002716292454197863
2.0166666666666666,0.00125163584016,0.00816853530705,9.72242164611816,0.007465556780183664,0.0006913669569390415,-0.0008409061829272956
2.025,0.00303261145018,0.02781028114259,9.76974487304688,0.00823962899800179,-0.001352334476190839,-0.002628222965305791
2.033333333333333,-0.00788243301213,0.03188022226095,9.7550687789917,0.007269300533196352,-0.0021713350538364504,-0.001019280174443834
2.0416666666666665,0.00518581131473,0.01811815053225,9.77174186706543,0.006436441635057892,-0.00034557174403760613,-0.0015476965876481798
2.05,-0.00211724149995,0.02050004713237,9.77538299560547,0.007579108351459249,0.001467450524569656,-0.0003893829220917741
2.058333333333333,0.00321162655018,0.02258152514696,9.74971866607666,0.006471312400581098,-0.004728030037555845,-0.0022866746360976726
2.066666666666667,-0.00186689198017,0.02336833812296,9.76802921295166,0.00703459905916004,0.0010753853584341488,-0.0028749963092949693
2.075,0.00527870701626,0.03052119165659,9.71847343444824,0.006866954108836835,-0.0010827617815012877,-0.000741660455039753
2.0833333333333335,-0.01100822538137,0.01522840280086,9.76268672943115,0.005491372629013452,0.0007789893780661281,-0.00021100889806603492
2.091666666666667,0.01271088607609,0.01727410778403,9.7424955368042,0.006779554571406393,-0.0002364908829214227,-0.00235015617813655
2.1,-0.02023552171886,0.01025000587106,9.73349475860596,0.009066005803658813,0.0012032424480047225,-0.0015897195271516078
2.1083333333333334,-0.00562180997804,0.0097135193646,9.76645755767822,0.005034483937321025,-0.0006643203324337205,-0.0018016224957292113
2.1166666666666667,-0.00744617823511,0.0266229044646,9.76802349090576,0.006669355878331305,-0.0019308206585575884,0.0005818391255858243
2.125,0.00730305258185,0.02864713594317,9.74233627319336,0.008098136601672338,-0.0008476119393284677,-0.0002856666791003832
2.1333333333333333,-0.01089377980679,0.01451311819255,9.73710060119629,0.006920152312057092,0.0017227177659827955,-0.0005914507574409115
2.1416666666666666,0.00180951249786,0.01525709312409,9.74624061584473,0.00815938254481181,-0.004209895662798597,-0.0021476412425130522
2.15,-0.0161797311157,0.01001397985965,9.72438335418701,0.006411406880513842,-0.0010420799152556634,0.0008040242626473297
2.158333333333333,0.0189693402499,-0.07353837788105,9.72750186920166,0.007205819511306084,0.0015434494438805583,-0.0015919548659767083
2.1666666666666665,-0.05582793802023,-0.19586630165577,9.72959041595459,0.0067779894441174,0.0014933795446808282,-0.0006182738480636526
2.175,-0.05580648034811,-0.252581179142,9.69938373565674,0.0080377842739144,-0.002013525464306641,-0.006485393864844897
2.183333333333333,-0.04106409847736,-0.24514934420586,9.66265392303467,0.007513392250818359,0.0013780400924567583,-0.011462433625512412
2.191666666666667,-0.16209056973457,-0.24022108316422,9.6169900894165,0.006734626211578908,0.004424257504083533,-0.013231420694543517
2.2,0.08338035643101,-0.33883741497993,9.66037940979004,0.008420014989516753,0.00419402488717729,-0.017294232102946453
2.2083333333333335,0.13068959116936,-0.32650581002235,9.68944835662842,0.005871814033258296,0.004291482799134924,-0.01880929508441683
2.216666666666667,-0.42674577236176,-0.15766295790672,9.81200504302979,0.007011798863218177,0.0038846649169022923,-0.026818248558936438
2.225,0.18314854800701,0.1411899626255,9.6524543762207,0.007432474805869183,0.008034655059633635,-0.026767284394169758
2.2333333333333334,0.09438866376877,0.22803236544132,9.79398727416992,0.009521551991684411,0.00918894501777687,-0.022657525408878446
2.2416666666666667,-0.03514227643609,0.35659769177437,9.80299282073975,0.009396377178666947,0.002450519380381089,-0.01742298345808415
2.25,-0.16596741974354,0.48730173707008,9.8339147567749,0.008220181680260428,0.005093494801709701,-0.012408842014331851
2.2583333333333333,0.82771980762482,0.59071755409241,10.1112585067749,0.004690254241820213,0.020467189844991317,-0.017227623947370024
2.2666666666666666,-0.79962027072906,0.93586057424545,10.01566123962402,0.009023982994192537,-0.02827653523462051,-2.503495569534026e-05
2.275,0.14583902060986,0.32815077900887,9.54131984710693,0.0067462489331723535,0.0048833797140807565,0.010597608471914734
2.283333333333333,0.3104190826416,0.01745293661952,9.93464756011963,0.007559884697637619,-0.0005302045217179337,0.009699032952986774
2.2916666666666665,-0.20575867593288,-0.08017621934414,9.68599414825439,0.005920989406816425,-0.009589727875293226,0.008002914548688586
2.3,-0.45022854208946,-0.17061676084995,9.46809673309326,0.004836439419273598,0.0016570008851188173,0.008537142582763786
2.308333333333333,0.24369010329247,-0.48721605539322,9.80781364440918,0.00670601387461741,0.00868779895801598,0.003783630722898731
2.316666666666667,0.39470818638802,-0.42099487781525,9.85966491699219,0.00930741407439334,-0.004759770548501067,-0.0035701627570694622
2.325,-0.25017067790031,-0.31679940223694,9.65537261962891,0.006753402017412641,-0.002797655926614807,-0.007677235954804383
2.3333333333333335,-0.0842676460743,-0.08734336495399,9.71718692779541,0.009800512914383799,0.002413414056255696,-0.011358268656782085
2.341666666666667,0.2422167211771,0.15947262942791,9.76930999755859,0.007514732673890402,0.0008777880381888598,-0.012945306687603846
2.35,-0.22022888064384,0.31503266096115,9.64444255828857,0.006780224522868195,-0.0018311279279234623,-0.008401014999614678
2.3583333333333334,-0.29396039247513,0.46891891956329,9.7425651550293,0.007251195198973034,0.005741498070980218,-0.003088239830981768
2.3666666666666667,0.25361120700836,0.40987220406532,9.94806671142578,0.007917081178844354,0.0036097270839396886,0.0016798005609120707
2.375,0.13555337488651,0.15944410860538,9.97091388702393,0.006878576830430107,-0.004397210814559811,0.0023798852742505333
2.3833333333333333,-0.19170358777046,0.0779375359416,9.76943111419678,0.005475725517311878,-0.003578210236914199,0.004834205380820019
2.3916666666666666,0.02893324941397,-0.0509282425046,9.74948215484619,0.004615147897593454,-0.0021342297297110573,0.006596039365610665
2.4,0.09244333952665,-0.30678543448448,9.63857078552246,0.006964857528113629,-0.004331940741386512,0.0033526722216521945
2.408333333333333,-0.20221802592278,-0.28300222754478,9.58176231384277,0.006756977519235479,-0.0022222992186031287,-0.0007000845833011358
2.4166666666666665,-0.0849546790123,-0.24058598279953,9.63948440551758,0.00860062360465388,0.0033826244615371265,-0.004728476325097916
2.425,0.23151557147503,-0.18220442533493,9.8102445602417,0.008947983034584415,0.0012546534204620817,-0.006026270614550455
2.433333333333333,0.02561383135617,-0.03784573450685,9.80609798431396,0.007203137104715999,0.0006623085925097759,-0.007736694147032175
2.441666666666667,-0.06387488543987,0.26359656453133,9.75681400299072,0.007029680013373157,0.0013127702793577652,-0.008571341836379361
2.45,0.00922716781497,0.28586336970329,9.8222484588623,0.007663153970391801,0.0006922611574875881,-0.004589443191587601
2.4583333333333335,-0.02728073298931,0.24566438794136,9.80287265777588,0.008383803280772721,-0.0010344799583061192,-0.002771726776466308
2.466666666666667,-0.1740930378437,0.30840912461281,9.73230075836182,0.006267008413674745,-0.0006424147271520361,1.564684476969727e-06
2.475,-0.01017134264112,0.1440797150135,9.78639125823975,0.007699365158987223,-0.0003156192440781955,0.004089414671202282
2.4833333333333334,0.09357348829508,-0.07146405428648,9.85432147979736,0.004870862856957515,-0.0017452939078934687,0.004933450783614856
2.4916666666666667,0.01509940065444,-0.10501077026129,9.8220853805542,0.006963963912732267,-0.0036953378301612322,0.003948593006557546
2.5,0.0320733487606,-0.16044542193413,9.76083374023438,0.008970783230526278,-0.005503219014526457,0.0027911735740590625
2.5083333333333333,0.05492668226361,-0.27318853139877,9.66035079956055,0.009331107885716738,-0.002047054506386108,-0.001046103330085151
2.5166666666666666,-0.06626393646002,-0.18017296493053,9.63133907318115,0.008264887416465572,9.365754337131833e-05,-0.004356081620474896
2.525,-0.0817641466856,-0.00344051746652,9.64822673797607,0.009381624722644128,-0.0002007266808179829,-0.005527360153689144
2.533333333333333,0.01500666420907,0.09197840839624,9.78734970092773,0.008114230000915984,0.0027607742664089714,-0.00667002634994172
2.5416666666666665,0.04758071154356,0.13179112970829,9.81587505340576,0.007264383047855296,-0.00031785448537551925,-0.005266727708984202
2.55,-0.02093685418367,0.29170724749565,9.83309078216553,0.006893329286452927,-0.0002195028767631723,-0.0038942762236644996
2.558333333333333,0.00864778738469,0.24132977426052,9.84314918518066,0.007643930836718779,-0.0019303735907926032,-0.00041620607773309125
2.566666666666667,-0.01974899880588,0.08121337741613,9.77664184570312,0.006928200051976308,-0.0014024043753903947,0.001152725481040007
2.575,-0.09664225578308,0.0859629958868,9.72903347015381,0.005532500262652366,-0.0035437870593045865,0.001946690914030112
2.5833333333333335,-0.00429170578718,-0.0198992099613,9.69980621337891,0.00701626902071977,-0.0018427512997024945,0.0029592650719986444
2.591666666666667,0.02230971679091,-0.16661116480827,9.74838066101074,0.006591568687960462,-0.0038263242640498986,0.0020338662673922135
2.6,0.02442694827914,-0.16448673605919,9.73553276062012,0.007217442753048137,-0.0030734873749589473,-0.00014842150781190264
2.6083333333333334,0.0043563307263,-0.11950263381004,9.76401710510254,0.006955693549190711,-0.0022822044785960802,-0.004046274322360609
2.6166666666666667,0.00797541998327,-0.08868094533682,9.71764469146729,0.007267959589975527,-0.0020694069843772236,-0.00579425050680701
2.625,-0.0087618874386,5.717659951e-05,9.73429107666016,0.007924232702638815,-0.0010577267018643578,-0.004888968711329443
2.6333333333333333,-0.03880417346954,0.15214812755585,9.71306705474854,0.008262206050172704,0.0003864771116562605,-0.006534123471009561
2.6416666666666666,-0.01512130908668,0.18111710250378,9.74909687042236,0.007633649578494942,0.0012787945596247697,-0.002936689320199427
2.65,-0.00961339473724,0.16970121860504,9.78777313232422,0.007123561123136256,-6.9293171037205e-05,-0.0002056442311774412
2.658333333333333,-0.01689501479268,0.17477256059647,9.83164024353027,0.006807942724299724,0.00041598260886926205,-0.00020966774353488042
2.6666666666666665,-0.00181660393719,0.08533325791359,9.81506538391113,0.005303609889338472,-0.0035402102571100514,0.0023195329464925966
2.675,0.00261078774929,-0.02535682916641,9.75132083892822,0.0077306593823901985,-0.0019433381658667654,0.001157643096418216
2.683333333333333,-0.02269595302641,-0.07363138347864,9.6937255859375,0.004930321049185306,-0.0034472238030257064,0.00020095021470056278
2.691666666666667,-0.02954839356244,-0.10599797964096,9.70538520812988,0.0056688520298698135,-0.001497626558411472,0.00043922931991812516
2.7,0.000100139805,-0.15126831829548,9.70075035095215,0.006889305416493407,0.002130429783745573,-0.0004846051376222264
2.7083333333333335,0.01610848493874,-0.08204311877489,9.74150085449219,0.006034540978091836,-3.934063856859358e-05,-0.002637164060531889
2.716666666666667,0.0285756085068,-0.00386968813837,9.77655601501465,0.00795016159271301,0.00035428930538112445,-0.0038442061944277913
2.725,0.02989199943841,0.082543797791,9.76016998291016,0.007866116493929067,-0.0005610511246979395,-0.0038062069948467314
2.7333333333333334,-0.02702303417027,0.12726347148418,9.78134250640869,0.0063738537084005505,0.0011826779809994176,-0.00356524527172858
2.7416666666666667,-0.05303117632866,0.17513020336628,9.77492523193359,0.0056035822167709946,0.0008786821737188303,-0.0022737101910606625
2.75,-0.03456253558397,0.13167668879032,9.77212142944336,0.008527307091933238,-0.00014171570264692932,0.0007378605740926707
2.7583333333333333,-0.02146568149328,0.0829014480114,9.76760768890381,0.00778385810575924,-0.00037150079665815365,0.0008558824329070009
2.7666666666666666,-0.01192378345877,0.01767467521131,9.76892471313477,0.007820517662491169,-0.0035853630610801815,-8.449297115391606e-05
2.775,0.01991351507604,-0.05837435275316,9.77227115631104,0.007471815728893981,-0.001252641745556713,0.0014656622535095406
2.783333333333333,0.01474916189909,-0.1077933460474,9.74584197998047,0.00738419304769259,-0.0013331112124806647,-0.0007653542663629768
2.7916666666666665,8.583411545e-05,-0.09905257076025,9.69990634918213,0.007697577408075718,-0.000765801334127962,-0.0013147820843004605
2.8,-0.01832558400929,-0.05951165407896,9.7266149520874,0.006947869993340011,0.0004070415136429892,-0.0039014290478306566
2.808333333333333,-0.00955591164529,-0.00077969406266,9.70342636108398,0.007895622446271927,-0.0009370226315156699,-0.004088744459666173
2.816666666666667,-0.01700267754495,0.05405391380191,9.75726318359375,0.006115010054904332,0.0018693506613871016,-0.003401176863525431
2.825,0.00081542407861,0.11898039281368,9.76870918273926,0.006570109955388036,0.0027250098855044033,-0.003782513183523333
2.8333333333333335,-0.00110172084533,0.1056259945035,9.80562400817871,0.006233479111520799,0.0008295063450306689,-0.0016447067816550678
2.841666666666667,-0.00668790796772,0.09786519408226,9.76184272766113,0.007440969873627687,-0.0008292829411854159,0.000860800113303786
2.85,-0.03398315608501,0.07429657876492,9.75139236450195,0.005232975263059306,0.00045353493574106467,-0.0016974592174818614
2.8583333333333334,-0.02087914943695,0.01814676262438,9.75805854797363,0.007067679993177304,-6.258738212683208e-05,0.00042402953605601455
2.8666666666666667,0.01781057938933,-0.03317488729954,9.71878910064697,0.006954129462198936,-0.0006978493094946113,-0.00014171571890152974
2.875,-0.03330328688025,-0.04725881665945,9.73200225830078,0.0070345980188628214,0.0004763346440435187,-0.002786032684872752
2.8833333333333333,0.01618698425591,-0.05709402263165,9.74680614471436,0.007275560002055279,-0.0027475861574524033,0.0007669189385219363
2.8916666666666666,0.00547178741544,-0.06559156626463,9.75251388549805,0.008495119253148902,0.0002894666575752426,-0.0018132458675082434
2.9,-0.01508534606546,0.00634457170963,9.74919605255127,0.007408782034843175,-0.0005610511897165156,-0.003519646440290682
2.908333333333333,-0.00065806152998,0.05657183378935,9.7536096572876,0.006436442675355283,-0.0009119876168973158,-0.003973404877404952
2.9166666666666665,-0.0317657738924,0.06805930286646,9.76074123382568,0.007982797279485419,-0.00021413824238395387,-0.0006629791291387648
2.925,-0.00081568438327,0.0998894199729,9.75452423095703,0.006862929718728706,0.0006538145650486628,-0.002130206249862993
2.933333333333333,0.00110869063064,0.09046200662851,9.80051803588867,0.0057779334436438064,-0.0004734288010988043,-0.002947418686485641
2.941666666666667,0.00125893868972,0.06705789268017,9.79737854003906,0.007560778833167589,-0.0027288098314698873,-0.00026331405481751485
2.95,-0.00381961814128,0.02478460036218,9.76350879669189,0.005151164202728768,-0.0010921496193994908,-0.001738140823653182
2.9583333333333335,7.05693355e-06,0.00252496637404,9.73101997375488,0.00858564800486011,-0.0011627839856043513,-0.0012535358810866837
2.966666666666667,-0.03997008502483,-0.0276457387954,9.75374507904053,0.00709494982647215,0.00010617502629859472,4.93993259977158e-05
2.975,-0.00520726945251,-0.03299606591463,9.72451210021973,0.008294392328511214,0.0009372460353609229,-0.0001604919311013195
2.9833333333333334,-0.0107507230714,-0.02419091574848,9.76281547546387,0.00769891939159376,-0.0014891326609875108,-0.002050631048506339
2.9916666666666667,-0.00359788001515,0.01399096101522,9.71984767913818,0.00755004972695568,0.0006037447308676831,-0.001672871270628493
3.0,0.01288942340761,0.02152290381491,9.78011035919189,0.00794390212385391,0.002592682248320781,-0.00306856988961789
3.0083333333333333,-0.02969875000417,0.06773021817207,9.78099632263184,0.007688189245084634,0.002229675446614539,-0.0021489824458081827
3.0166666666666666,-0.01904802024364,0.08994700014591,9.76034069061279,0.007183466643203512,-0.0014050866519433286,-0.002079689022823973
3.025,-0.02418376132846,0.05832428112626,9.79586887359619,0.008892549752613188,0.0015018734421047891,-0.0010259859308450062
3.033333333333333,-0.0003933183034,0.03693014755845,9.78349494934082,0.006262538776321761,0.0009819512514174591,-0.0007886010099212154
3.0416666666666665,-0.01683063991368,0.01720974035561,9.78397369384766,0.006637168559695579,1.4529213707964722e-05,-0.00037820661807772736
3.05,-0.0075891665183,-0.00278245587833,9.76427459716797,0.00795463279051182,-0.00035048935941564053,-8.851644287467979e-05
3.058333333333333,0.0218876991421,-0.03346100077033,9.74844551086426,0.006526745682552325,-0.0018101165231903247,-0.0023032156232549133
3.066666666666667,0.00552914757282,-0.02349708974361,9.7647533416748,0.0068043656620307095,0.001024868456488184,-0.0021918996508789074
3.075,-0.00388414668851,-0.0096777882427,9.70585632324219,0.0058932727658308984,-0.00028611374686536844,-0.0014614153698162234
3.0833333333333335,-0.00581526150927,0.02680885605514,9.75998306274414,0.008702551934187586,-0.0024677310992230477,-0.002898242792778904
3.091666666666667,0.0016165424604,0.03612900897861,9.73413276672363,0.00806639557057868,5.610511897173883e-05,-0.002125288634484959
3.1,-0.01856162771583,0.05424000695348,9.78139114379883,0.006122163659293402,-0.00028834898816251775,-0.001747976054409425
3.1083333333333334,-0.00764638930559,0.06336703896523,9.75553321838379,0.00577972067440653,-0.0005409338229855714,-0.0012007835752970417
3.1166666666666667,-0.00014305685181,0.05377507209778,9.79420948028564,0.006209338492506895,-0.0005968154405841057,-0.0012003365075320567
3.125,-0.03657248616219,0.01652306690812,9.75483989715576,0.006613474228223746,-0.0018566100103068017,-0.0013867575237631244
3.1333333333333333,-0.01070757582784,0.00023592438083,9.73321056365967,0.0067610019093437826,-0.003492822894537908,-0.001911597524884566
3.1416666666666666,-0.00477809924632,-0.01685925014317,9.76107692718506,0.0073868764945800676,-0.0016071546498389936,0.00018351517328635343
3.15,-0.01188086625189,-0.03069285489619,9.7724084854126,0.008760221855355434,-0.0017488703199765472,-7.33166427577942e-05
3.158333333333333,0.01551451627165,0.00266801053658,9.75146389007568,0.007839740276015583,-0.0008659411325270735,-0.002629564168600921
3.1666666666666665,0.01002828590572,0.01042169239372,9.74398136138916,0.007865223398696315,0.0003426659336020925,-0.0020430314166495003
3.175,-0.00648762844503,0.01275351922959,9.74213600158691,0.007294782615579692,-0.0004716406275664658,-0.003062758268746863
3.183333333333333,0.00254620634951,0.05103553831577,9.78519535064697,0.007152172939949145,-0.0003983239522994708,-0.0016040251754837478
3.191666666666667,-0.01016419008374,0.03855382278562,9.77819347381592,0.007261701161413819,0.0012555475559922265,-0.0020819246217235526
3.2,-0.00125890038908,0.05908248201013,9.76672744750977,0.006288019818407883,0.0013655225851475813,-0.0021968168761454855
3.2083333333333335,-0.01223851460963,0.04335338249803,9.77993202209473,0.006834765749903715,0.0006368266401635888,-0.0010443151890621879
3.216666666666667,-0.01396984606981,0.01226703729481,9.75870132446289,0.007230853745701524,0.0018210691632846393,-0.0026604108040903024
3.225,-0.01402672473341,-0.00584387267008,9.7426586151123,0.006519593118460471,0.0011594312374410046,-0.0003916181633890979
3.2333333333333334,-0.01231719553471,-0.00173098803498,9.73891067504883,0.008239405334082057,-0.0008730939566932307,-0.0033162371090629094
3.2416666666666667,0.01337561570108,0.00297555793077,9.74792861938477,0.007463321701432868,0.0009198109776922877,-0.0015056735181075997
3.25,-0.01063627749681,0.01947003789246,9.72926807403564,0.006122610987132691,-0.0008775645043062798,-0.003171392094607262
3.2583333333333333,-0.00690249353647,0.02190915867686,9.73288059234619,0.00797922177766258,0.0003091369890504024,-0.0025003662658468484
3.2666666666666666,-0.00149449112359,0.04556366428733,9.77445411682129,0.006632250554206087,0.0006895787508975021,-0.0038200655754138868
3.275,0.00375524256378,0.06762297451496,9.75378131866455,0.006842142498063909,-0.001688965320057901,-0.0018172693473563074
3.283333333333333,-0.02158012799919,0.0444477647543,9.76353740692139,0.005919201655904918,0.0003918417297808785,-0.0022138049310677114
3.2916666666666665,-0.02341845817864,0.04130051657557,9.765456199646,0.008496013388678872,0.0007785423103011428,0.0006694614816943347
3.3,-0.01599375717342,0.02238124608994,9.7860689163208,0.008238511198552087,0.00021704408532884276,-0.0007251194678825122
3.308333333333333,-4.0113697052002,0.18501503765583,11.30279922485352,0.010812193717045273,0.021517320035890835,-0.02633766449547496
3.316666666666667,-27.61843681335449,1.01691222190857,32.24434661865234,-0.008933026680290565,0.8737711694300927,-0.1036641446425797
3.325,50.58613204956055,4.17448806762695,20.78136444091797,-0.0372136024296273,0.5956657123295788,-0.037509991453007145
3.3333333333333335,-2.7668468952179,3.83468675613403,26.61045265197754,0.056214424569502104,-0.22208419909501578,-0.023213214776269468
3.341666666666667,-3.28561162948608,1.34706497192383,15.28395366668701,0.010434436799985127,-0.28930754488322785,0.04184258003953785
3.35,1.51576840877533,2.99215865135193,5.88423442840576,0.05259153512396389,-0.4585431430688705,0.06743279924675748
3.3583333333333334,-14.97313594818115,-5.0766487121582,7.02084827423096,-0.003953735456189682,-0.33569378567044184,0.03803637772602895
3.3666666666666667,-2.87468004226685,2.43750977516174,3.6360969543457,-0.06970938169866578,-0.28182609288043636,0.03848341844332317
3.375,-7.54602098464966,1.54445028305054,4.51961994171143,0.025332691529809093,-0.18466968196708783,0.06656883649962218
3.3833333333333333,-4.6840353012085,-2.40147829055786,8.46446418762207,0.0434027846417824,-0.05133909207519178,0.06623913299548125
3.3916666666666666,5.53008985519409,-2.54551529884338,12.57675647735596,-0.04759770860590179,0.003423306327782751,0.03683155948768788
3.4,10.10350227355957,2.28959369659424,10.96091938018799,-0.023032157272846875,-0.14495595800155384,0.032758460579277275
3.408333333333333,3.97878193855286,-0.63588428497314,6.85555744171143,0.05963571272052118,-0.1895110258679862,0.04714506276675079
3.4166666666666665,-1.04327023029327,-2.99348330497742,5.24272775650024,0.018328045230682596,-0.1461473564047145,0.02781405650538217
3.425,3.63505339622498,-1.51542997360229,3.18177771568298,-0.007658460148970651,-0.025809245481527396,-0.0032509672959639166
3.433333333333333,-3.23797750473022,-0.16380010545254,3.24304890632629,0.008523730549813008,-0.014231477215165721,-0.020576495962982257
3.441666666666667,-5.67574262619019,-1.30432057380676,4.83344078063965,0.010167766989894814,0.16592941685036378,-0.034021828830302685
3.45,-0.97760707139969,-0.0390152707696,8.46067237854004,-0.022836352514888074,0.22420302670303968,-0.040409549701722954
3.4583333333333335,0.66452747583389,1.79332077503204,12.46662330627441,-0.0014851093111765995,0.2221210838761134,-0.020957835663946465
3.466666666666667,2.36975121498108,0.09400409460068,12.02855968475342,0.017344080028709432,0.14628615703177802,-0.00016272718865324365
3.475,-1.05683100223541,0.37022045254707,12.60034561157227,-0.0017229412998653756,0.11536530881357437,-0.002299639081134857
3.4833333333333334,2.80066800117493,0.82698684930801,11.55992126464844,-0.001882986358257438,0.08746520099606363,-0.004698076757373696
3.4916666666666667,0.49911108613014,0.40015864372253,10.41385269165039,0.012177493418496036,0.0033920128846026886,-0.008030855893891064
3.5,-2.17098093032837,-0.05553459748626,9.83725452423096,-0.009316131765774185,0.006564745662356297,0.0006359325046334438
3.5083333333333333,-0.15751275420189,1.07618808746338,9.88266086578369,0.0005212634590010362,-0.011986377280471945,0.013912727001304857
3.5166666666666666,-0.23661795258522,0.20550392568111,10.21960067749023,0.014901387064996737,-0.03968174522650714,0.02495470782793739
3.525,-2.26577043533325,-0.72963988780975,10.72929859161377,0.002892207507988319,-0.020183536141168173,0.021396612259482962
3.533333333333333,0.6402080655098,0.35546767711639,10.29545879364014,-0.003032805768787627,-0.00674647311724052,0.021603602294020183
3.5416666666666665,1.8629537820816,-0.04515422508121,9.96483135223389,0.008109760363563,-0.03630515656990938,0.026374545115383233
3.55,0.6697860956192,-0.45113101601601,8.72903060913086,0.0032395679782158985,-0.07934068713618041,0.013557992903809084
3.558333333333333,-1.27983617782593,0.13153851032257,7.96602964401245,-0.0018803036915928729,-0.05410053213187333,0.01009780491582067
3.566666666666667,-0.4365237057209,-0.12117630988359,8.70488834381104,0.009929264269521496,-0.008537813054374198,0.008935019889918927
3.575,2.09351563453674,-0.86935651302338,8.53184700012207,0.007680589873302099,-0.015399179726408346,0.007508474765477302
3.5833333333333335,-1.41706776618958,-0.22106339037418,8.92135047912598,-0.0030117946241287933,-0.03218734984469903,-0.008286570333106341
3.591666666666667,0.67316818237305,0.11432371288538,8.31098747253418,0.005806097412468622,0.02302209759794816,-0.008599505805204178
3.6,-0.36036023497581,-0.18508696556091,8.78705978393555,0.007486568184916801,-0.0007666954696581071,-0.007470251121753597
3.6083333333333334,-1.00284790992737,0.05957690253854,9.3485164642334,-0.0023532853924173166,0.05509276769738788,-0.005447785212406794
3.6166666666666667,2.11423301696777,0.51539558172226,8.88782024383545,0.00666667347174122,0.030964436675107513,0.0060635996025955805
3.625,-2.37950730323792,-0.34879419207573,9.84333324432373,0.004434986610295442,0.025894410460355656,-0.002997041387883059
3.6333333333333333,2.24593162536621,0.14634622633457,9.32113265991211,-0.0020716425832766287,0.03145843433196594,-0.003174968896801797
3.6416666666666666,-1.58024191856384,0.23665143549442,10.18301010131836,0.004106626910192849,-0.008938820095958717,-0.0037820663758326525
3.65,0.77692747116089,-0.06012679636478,9.42432880401611,0.006801683775589233,0.005978659848132885,0.005524900890870006
3.658333333333333,-0.49396103620529,0.10716389119625,9.9920711517334,0.0012287244003509096,-0.027856748226012862,-0.0013903340658833554
3.6666666666666665,0.41587349772453,0.15804903209209,8.89547538757324,0.0038781823042722437,-0.009833818032469228,-0.004371281404337007
3.675,-1.46611833572388,-0.07182853668928,9.15630531311035,0.0019024330258130403,0.0051981055378333176,-0.003245602742858049
3.683333333333333,1.61665689945221,0.10935981571674,9.28070640563965,-0.0013796046995971415,0.0055043373341247676,0.005567371028175572
3.691666666666667,-0.9172877073288,0.18124589323997,8.93240547180176,0.005093942129548991,-0.02699796199824638,0.0024862837612856566
3.7,-0.59109669923782,-0.22105863690376,9.03380584716797,0.0027236686822092733,0.02534542892996024,0.0013592637664744168
3.7083333333333335,0.94512659311295,-0.00644471170381,9.42983627319336,0.0011160669646052943,0.012887858349761116,-0.0014551565511428844
3.716666666666667,1.37700808048248,0.01402672473341,8.94131851196289,0.004374187994995434,-0.023467588272264094,0.0056478411452852845
3.725,-2.29057645797729,-0.35458076000214,9.21669483184814,0.010289813628928906,-0.021491164881153865,0.002668457503711951
3.7333333333333334,0.77666991949081,-0.00023606819741,9.15507984161377,0.0017218235004154982,0.024568004354090227,-0.0010925968172018027
3.7416666666666667,0.83533048629761,0.08421041816473,9.35991668701172,0.007421298371817983,-0.02569167316118412,-0.01195150651494874
3.75,-1.57192301750183,0.09252917766571,8.84494113922119,0.0012939940834125758,0.004949096855019038,-0.00907919365254125
3.7583333333333333,0.03904021531343,0.28878173232079,9.15481662750244,0.0034693530072085464,0.022392649071334866,-0.0014681211262172209
3.7666666666666666,1.25519514083862,0.1457105576992,9.78242874145508,0.0034689061995178657,0.009759384760596101,-0.00038848885158037976
3.775,-0.36110413074493,-0.13935907185078,9.00739669799805,0.0016753300132990212,-0.01022588423890213,-0.005477736932143117
3.783333333333333,-0.42031535506248,0.20591604709625,9.04802417755127,0.0002782903210518205,0.0014075455246510093,-0.003968040584373214
3.7916666666666665,0.63863408565521,0.06265925616026,9.06602191925049,0.004505844380345731,-0.004076673630010525,0.004825933456832638
3.8,-0.97945332527161,-0.15607535839081,8.80220985412598,0.002543059546923362,0.00693356434500787,0.011294562930675038
3.808333333333333,-0.0855480581522,0.2366229891777,9.0941686630249,0.003798830766835321,0.019016505661981785,0.005155188592837072
3.816666666666667,0.84088104963303,-0.02383327297866,9.20173931121826,0.0062115740914063,0.0023745207211444915,0.0078021876240509
3.825,-0.5387664437294,-0.17889975011349,9.49785232543945,0.0025502121110152157,-0.002262086949318783,-0.00046001725578743383
3.8333333333333335,0.16787007451057,0.16558116674423,9.10283660888672,0.002154123725105949,-0.0019607732885539766,0.005116294477502954
3.841666666666667,-0.66342616081238,-0.13712714612484,9.34866523742676,0.006333619690142999,0.009968606232843511,0.00209421859515015
3.85,1.10399127006531,-0.10401663929224,9.06057071685791,0.0017124353374244148,0.0008903054804794608,-0.0021597116820572435
3.8583333333333334,-0.42011508345604,0.00801118370146,9.02381229400635,0.00644627660573983,-0.021007901011845347,-0.005711545310946501
3.8666666666666667,-0.4716802239418,-0.06751566380262,8.85929679870605,0.006901824354211431,-0.00054674554138455,0.0052361060377860745
3.875,0.00544331362471,-0.14091816544533,9.17719078063965,0.003510481941219156,0.005917860712684093,0.0034657764650883162
3.8833333333333333,0.75422412157059,0.24753871560097,9.19478034973145,0.002809726496196151,-0.00235015617813655,0.0014868973221624103
3.8916666666666666,-0.31519001722336,-0.08831615000963,9.32667064666748,0.005920989406816425,-0.013667295900908198,-0.00011221023794330313
3.9,0.0564287006855,0.06455454230309,9.0764217376709,0.003187709417844771,-0.005123224417972292,0.0015805548980429296
3.908333333333333,-0.21731789410114,-0.02212358079851,9.15625381469727,0.006284443796436261,-0.004565749380264376,0.008637282121088592
3.9166666666666665,-0.51688587665558,-0.12936632335186,9.1451244354248,0.004333952416292056,0.007831692536096542,0.0009488694071401295
3.925,-0.01324709504843,-0.17224059998989,9.37415027618408,0.0032804727281581674,0.01711809624605396,-0.004209001527268452
3.933333333333333,0.57089674472809,-0.02572909370065,9.41306114196777,0.00407108567305923,0.0074928266134785095,-0.005197881873913761
3.941666666666667,-0.14973045885563,-0.10553304851055,9.05758094787598,0.0057323335719086915,-0.007253430277723829,-0.004030180663042657
3.95,-0.27849593758583,0.03556393459439,8.78849792480469,0.0036676204089527925,0.009220462905099579,-0.0042760590912787775
3.9583333333333335,0.13207724690437,0.03058555722237,8.39215850830078,0.005806991547998768,0.013222701962865456,-0.002729703967000032
3.966666666666667,0.44549337029457,0.09900965541601,8.21577644348145,0.005167930154177438,0.016705468563470608,-0.005465219554871092
3.975,0.18151769042015,-0.01874760165811,8.42825889587402,0.002353956124102034,0.02295504211453227,-0.0019697143837802498
3.9833333333333334,-0.63052362203598,0.07151288539171,8.90687561035156,0.0006815318562199505,0.04415383768107676,0.0022390638696801017
3.9916666666666667,1.047034740448,0.11676634848118,9.09989833831787,0.002120147745298649,0.03944010913066366,-0.0016751066094537683
4.0,-0.13121172785759,0.04174422845244,9.35024738311768,0.003672761298139102,0.0213697892338788,-0.005124564841044336
4.008333333333334,0.04105731844902,-0.0241336915642,8.90677738189697,0.003188603553374916,0.02023472292955719,-0.006482711458254811
4.016666666666667,-1.10307276248932,-0.03950269520283,9.58152675628662,0.004943732561987475,0.029632219468119843,-0.0016308483311250651
4.025,0.35226321220398,0.03125077113509,9.59769153594971,0.002931548431013117,0.02037867510885439,-0.006370054542657979
4.033333333333333,-0.06867444515228,0.04080696776509,10.21297264099121,0.0041984958249019705,0.0031970975808360293,-0.007539991612502792
4.041666666666667,-0.09262216091156,0.01043599750847,10.09656715393066,0.005260693984639442,-0.024581197404459097,-0.009425660507387468
4.05,-1.17044830322266,-0.11929511278868,9.79620456695557,0.007872821730181456,-0.015118875779893699,0.0022059816352913157
4.058333333333334,0.84279805421829,-0.0387111864984,9.64522933959961,0.006675614827041798,-0.01670993664037759,0.005318362865509902
4.066666666666666,-0.04191835224628,-0.18092431128025,9.6493968963623,0.00957028159784908,-0.04622570210775264,-0.004639960028515164
4.075,-0.52599686384201,-0.0887588262558,9.1180248260498,0.006722108314158274,-0.03907419495807608,-0.004306458919077478
4.083333333333333,-0.61468702554703,-0.02360113151371,9.14770317077637,0.008652482425099486,-0.03320036846968932,-0.008279416728717268
4.091666666666667,-0.04138635098934,0.09249341487885,9.0704984664917,0.00870858721897817,-0.01613949585726114,0.0027037748168515334
4.1,0.34473115205765,0.02622961439192,9.10470962524414,0.0068128596894919975,-0.014927537018247273,-0.0025195891394455662
4.108333333333333,0.77686750888824,0.22993548214436,9.08173942565918,0.007086903646998936,-0.03679422529815632,-0.007111714737623252
4.116666666666666,-1.25527393817902,-0.17107401788235,8.75599384307861,0.00568539275695275,-0.013017729064794517,-0.009068911354020022
4.125,1.35172283649445,0.11558278650045,8.66402435302734,0.0037487604775243086,-0.00018150340085303342,0.0007986597095414623
4.133333333333334,0.383206397295,0.0010801916942,9.31585502624512,0.006652814631099761,-0.021231874940115577,-0.005236328661408414
4.141666666666667,0.70048671960831,0.08385898917913,8.45173835754395,0.007463768509123549,-0.041046145070792704,-0.012546087396930661
4.15,-2.32106184959412,-0.09357348829508,8.8472728729248,0.006984082222232652,-0.008143960657475795,-0.012715967946153268
4.158333333333333,0.80597448348999,0.13531985878944,8.85486793518066,0.005409114760992234,0.03154024123110709,-0.0044521978089887915
4.166666666666667,-0.10289364308119,-0.07916051149368,9.07557678222656,0.00513372986026447,0.018098707529529412,0.0001987149408940382
4.175,-0.44784235954285,-0.00877285562456,9.34726047515869,0.0003703832247733802,0.046406534906958286,-0.0004483939165176026
4.183333333333334,1.02823543548584,0.11088337004185,9.89060115814209,0.0032771198499576683,0.024750399679841637,-0.008789949391023419
4.191666666666666,0.54041147232056,0.07995478063822,9.51512718200684,0.004899921481461085,-0.019190187457541575,-0.014473331773442321
4.2,-0.62749028205872,-0.01688070967793,8.67723560333252,0.004338199690096829,0.0011806663060938743,-0.00843364964608987
4.208333333333333,-0.92663651704788,0.07453262060881,9.56732082366943,0.006685002469884271,0.00161587208114536,-0.0063530659675869695
4.216666666666667,2.31617641448975,-0.14888642728329,8.93947315216064,0.00707729182008812,-0.00620509199892486,-0.00710232657463217
4.225,-2.99355316162109,-0.2209487259388,9.77422523498535,0.006134234228874745,-0.03118908055483955,-0.015305297056199247
4.233333333333333,0.84259229898453,0.17324087023735,9.61628532409668,0.0019388676182537162,0.03249581671974127,-0.003064769943652406
4.241666666666666,0.82435095310211,0.16037391126156,9.87684726715088,0.008891207769095147,-0.018267468718856317,-0.0004667230772070075
4.25,-1.13806021213531,-0.21268263459206,9.35075378417969,0.004421575097493446,-0.0071966544920859495,-0.0038808647108625038
4.258333333333334,0.71025586128235,0.30730760097504,9.03192329406738,0.0067064612024567,0.006315290171851337,0.00016071546498389936
4.266666666666667,-0.51296615600586,-0.53109860420227,9.66269683837891,0.004684442100800577,0.0009752456250536136,-0.004712383446003054
4.275,1.25796329975128,-0.01130149140954,9.413649559021,0.0034841052031570636,-0.011273328382170779,-0.008628563909559139
4.283333333333333,0.16124747693539,0.04580533504486,9.30059051513672,0.005009672846696707,-0.035799534631011674,-0.011200011349301528
4.291666666666667,-1.91521656513214,-0.15496633946896,9.16281318664551,0.010813534660265927,-0.015366991887624009,-0.01427349898433478
4.3,-0.1067212074995,-0.17046818137169,9.18100452423096,0.0030218529986559854,0.02883110316152121,-0.00942968541764438
4.308333333333334,1.20549726486206,0.11854406446218,8.89134120941162,0.005975977441542625,0.017948942168915183,-0.00664499159539767
4.316666666666666,-1.30208933353424,-0.24081453680992,9.83767795562744,0.004576702670544626,0.017771910616046896,-0.004723559880054252
4.325,2.17409896850586,0.11101907491684,9.22345542907715,0.0022931569886534167,0.0036593497853369327,-0.012645332799725496
4.333333333333333,-1.64639127254486,0.02531391195953,9.66009998321533,0.0033685422170504136,-0.0005167929438973624,-0.00878056278847816
4.341666666666667,1.22578966617584,0.16682557761669,9.62126064300537,0.006835882509056199,0.008060806573329995,-0.006017329779398661
4.35,0.4039793908596,-0.0310519002378,9.5717134475708,0.009319484643974684,-0.03591353040923472,-0.006159939455029033
4.358333333333333,-0.39619591832161,-0.10051207989454,8.91774368286133,0.004713500205155538,-0.01879007039029781,-0.008261981345955753
4.366666666666666,-1.64613378047943,0.00493546156213,9.66322612762451,0.009378272884740845,-0.0028240321445281162,-0.013305630302496914
4.375,0.08130507916212,0.02233038470149,9.15318775177002,0.002833643971439106,0.03075029771751922,-0.011180342448235042
4.383333333333334,0.29794451594353,0.096584841609,9.83022403717041,0.0033186958517332633,0.015339944157802895,-0.006436217971138334
4.391666666666667,0.80779200792313,0.2616223692894,9.58268547058105,0.005334008936914259,0.004639736364595431,-0.0008744350949697849
4.4,-0.41977888345718,-0.14958740770817,9.88276863098145,0.006463711468352737,-0.010132002608990248,-0.007499308185811341
4.408333333333333,0.33403778076172,0.04826023057103,9.81696224212646,0.0025792707355187855,-0.012236726906507053,-0.007722388498700209
4.416666666666667,-0.41867735981941,-0.00088695250452,9.17875671386719,0.008368602976761825,-0.005593075734181426,-0.0047924051949760835
4.425,-1.39094090461731,-0.28241389989853,9.77687549591064,0.0023865910306515308,0.03867698864267996,0.0007763070364946183
4.433333333333334,1.69159734249115,0.07089182734489,9.23322582244873,0.0028792430629511344,0.00940442491858599,-0.007179666957312331
4.441666666666666,-0.23742431402206,-0.07288032025099,9.64573764801025,0.005040742886031341,0.004643313426864272,-0.008428732160748815
4.45,0.7845596075058,0.06512663513422,9.47327518463135,0.005641582716723577,-0.0048071581711475134,-0.013012365291911562
4.458333333333333,-0.59490191936493,0.00612998660654,9.71183681488037,0.0055874877772301304,-0.01259705052140012,-0.007603919442083567
4.466666666666667,-0.37398639321327,0.04341060295701,9.91559314727783,0.005708192432746003,0.002005254840690781,-0.0070173863000208645
4.475,1.01305019855499,0.03737381100655,9.48095035552979,0.005036272728529749,0.005315679938771206,-0.00941224795428808
4.483333333333333,-1.27204012870789,-0.23700886964798,9.73124980926514,0.004296847612315271,-0.013833154660765722,-0.017398398111974
4.491666666666666,-0.30087122321129,0.01176010165364,9.7148551940918,0.0009180227716507484,0.028579409471373454,-0.006461253245830993
4.5,0.44935590028763,0.10356601327658,9.78053283691406,0.006065388393804305,-0.0019433381658667654,-0.0090478994291381
4.508333333333334,-0.19156713783741,-0.09982526302338,9.86271858215332,0.00704577497306263,-0.004091873413872636,-0.009503446657461095
4.516666666666667,0.68406212329865,0.15802060067654,9.91226673126221,0.003343283798586632,-0.008591012297891673,-0.009004090429206319
4.525,-1.00869393348694,-0.05649358406663,10.21097087860107,0.005715792844825754,-0.015966040846512913,-0.011014037400835272
4.533333333333333,-0.2503065764904,0.02586467936635,9.99658489227295,0.003394247963353485,0.009961900476442513,-0.0006097799506396917
4.541666666666667,1.23517382144928,0.08461080491543,9.90973472595215,0.0021939115858585806,0.000994915826491621,-0.004824593033760594
4.55,-0.69065713882446,0.01891955919564,9.98657131195068,0.007851362997608854,-0.020490661032692373,-0.011807109088406863
4.558333333333334,-0.23423407971859,-0.10717146098614,9.7954044342041,0.004578490421456133,-0.017479314516625787,-0.010474892921716408
4.566666666666666,0.56968104839325,-0.09160646051168,10.02780628204346,0.007338593696106082,-0.026131123869371636,-0.004225989322116374
4.575,0.36160835623741,0.01356877107173,9.89492893218994,0.0086390714324461,-0.04442408195269252,-0.007043316230392276
4.583333333333333,-1.15728878974915,-0.12224653363228,10.26965045928955,0.007540662084113204,-0.02857024445215332,-0.010484726852100956
4.591666666666667,1.26803922653198,0.20741292834282,9.52153873443604,0.007524568684869558,-0.031303529902685714,-0.009527588836920998
4.6,-0.89097958803177,-0.16419321298599,9.51384544372559,0.009125240331967046,-0.024270046562380763,-0.010380117676423163
4.608333333333333,-0.00995656661689,0.05079959705472,9.02646636962891,0.004848063181164261,0.0027017634020204693,-0.0023962025974880417
4.616666666666666,0.62456476688385,-0.18429300189018,9.3026008605957,0.004219506969560629,-0.0007666954696581071,-0.01018341410159639
4.625,0.3025795519352,-0.05150762200356,9.16776275634766,0.0032257091375746134,-0.005037390527979626,-0.016068417544183124
4.633333333333334,-0.22154508531094,-0.18028053641319,9.65341281890869,0.0031380864563730483,0.009021747395293132,-0.015423318784976426
4.641666666666667,-0.52003312110901,-0.01017849519849,10.26660442352295,0.003935181493755376,0.011454608509215711,-0.011827226357609856
4.65,0.21225199103355,-0.22330714762211,9.84203624725342,-0.0011046672567459944,0.04771907801139303,-0.004128085122616667
4.658333333333333,0.04541340097785,0.06708651036024,9.62120342254639,0.004379999615866461,0.013389902706241198,-0.016463611924599397
4.666666666666667,-0.38060036301613,-0.17899928987026,10.13175296783447,0.0031604395845499247,0.03162741606432058,-0.01167388965636201
4.675,0.71871739625931,0.1666184514761,9.7191686630249,0.004999166884255746,-0.003489246352417678,-0.018267468718856317
4.683333333333334,-1.19108426570892,-0.21665245294571,9.73001194000244,-0.0008744351599883611,0.013434604281257125,-0.008158711032904005
4.691666666666666,0.31671360135078,0.29880312085152,10.13566589355469,-0.00241855520551631,0.025408019457360802,-0.008768492218896817
4.7,2.00806045532227,0.18221151828766,10.30240440368652,0.002130429783745573,0.0007378605090740945,-0.010430187185511263
4.708333333333333,-1.30380606651306,-0.04298116639256,10.54527854919434,0.005173070783289269,-0.008018785324309718,-0.013304737727412768
4.716666666666667,0.12850086390972,-0.02747399173677,9.69175338745117,0.0036320799520420865,0.011926695424324424,-0.0015034381792824992
4.725,-0.80250608921051,-0.04280235618353,10.4929141998291,0.003842641587287408,0.01530686166333963,-0.003214309039603508
4.733333333333333,1.04066693782806,-0.05180117860436,9.8464879989624,0.00042134716197512947,0.012310267603296034,-0.005310986117349883
4.741666666666666,-1.16075623035431,-0.08358069509268,10.04030990600586,0.0018063164471875137,0.0029118779695006306,-0.010348376125180725
4.75,-0.50212955474854,0.01344734430313,10.30542278289795,-0.0006348149002394696,0.023098990132640253,-0.006791625140987736
4.758333333333334,1.04551672935486,0.02200929820538,10.57002067565918,0.0030401819967990377,0.015824101642492778,-0.0009034935894362028
4.766666666666667,1.22199881076813,0.01178095396608,10.64898872375488,-0.000702319857107835,-0.015401413244713141,-0.005802297726577444
4.775,-0.73854750394821,0.00506836315617,10.39218521118164,0.010465727902496273,-0.04135550868210832,-0.011280927753953313
4.783333333333333,-1.23807108402252,-0.26004159450531,10.13949012756348,0.005264269486462282,0.017429467631160024,0.0003846888731055204
4.791666666666667,0.8084214925766,-0.21701009571552,9.78805732727051,0.0046558313242849045,0.0006998610494187306,-0.004307353054607449
4.8,-0.92419022321701,-0.14013133943081,10.03799247741699,0.002458566340077217,0.0053340099772114765,-0.003747195870383751
4.808333333333334,0.80350720882416,0.22424864768982,9.75988960266113,0.0039266874662942635,0.002109418118937956,-0.011053825651699534
4.816666666666666,-0.43688133358955,-0.01615111902356,10.14137935638428,0.0031273573501611395,0.0014173806253701003,-0.012987775784612193
4.825,-0.01301102153957,0.24667294323444,10.13986301422119,0.0022757216058917266,-0.01071674747999301,-0.010968884336790836
4.833333333333333,0.04054034873843,0.08469705283642,10.2675142288208,0.0005469690102483792,0.028567337861494888,0.007855833675259057
4.841666666666667,1.39706468582153,0.07911044359207,10.05121803283691,0.004919591422824788,-0.011351561860083868,-0.0028910899686129207
4.85,0.19167476892471,-0.16123950481415,9.95245265960693,0.0014924855391880098,-0.012617169871197898,-0.0021534529934212317
4.858333333333333,-0.3103945851326,0.09292245656252,9.7952995300293,0.0072921012492868234,-0.040278110218359954,-0.01085935871606938
4.866666666666666,-1.59784495830536,-0.23935557901859,9.90179538726807,0.0027665858872799984,0.01910904634867284,0.0043071299108365
4.875,0.34800010919571,0.17500145733356,9.72370338439941,0.0026691282353966685,0.015287638009518,0.0014477801930943214
4.883333333333334,-0.48728743195534,-0.10883765667677,10.53100204467773,-1.1176317220953206e-05,0.024438360423868384,0.00013523345574643648
4.891666666666667,0.0191266965121,0.07833073288202,10.31175899505615,0.0016078251214494065,0.026337439791257838,-0.001583460708478443
4.9,-0.05232537537813,-0.23940801620483,10.95925045013428,-0.0029062897524750318,0.036080506448393515,-0.0010733736185100295
4.908333333333333,0.81215524673462,0.17567382752895,11.0022029876709,-0.0013138879487703155,0.010164860399236388,-0.0027614444779450794
4.916666666666667,0.42188888788223,0.06215836107731,10.66543865203857,0.003640574239577678,-0.018381021330429296,-0.003666279985880749
4.925,-0.55276453495026,-0.10453879833221,10.56909084320068,0.008447284822811598,-0.01847400726436503,-0.005756697854842327
4.933333333333334,0.11969558894634,-0.2405714392662,10.07057952880859,0.0035212107873567613,-0.005980671262963948,-0.0011694900020798279
4.941666666666666,-0.06314531713724,-0.02438398264349,10.18136501312256,0.005326409565131725,-0.02245724529193144,0.0022618632853990506
4.95,-0.36259907484055,-0.08054101467133,10.28803443908691,0.0032768964461124157,-0.007925350502088518,0.0026957278571554054
4.958333333333333,0.1979406028986,0.13060377538204,10.22377872467041,0.0041591549018769975,-0.013058409890742749,-0.00014350392494306906
4.966666666666667,0.71999084949493,0.2135266661644,10.17080593109131,0.0041511082022553485,-0.016473447935578554,0.0029136665006350504
4.975,-0.14068947732449,0.02179486677051,10.29190444946289,0.0065535702686023165,-0.0050364963924494814,0.003333448827904868
4.983333333333333,-0.5270214676857,-0.29903176426888,10.27890014648438,0.006217385712277327,0.0005456278719719996,0.010886850652837959
4.991666666666666,0.50162178277969,-0.17988704144955,9.80789852142334,0.0033844124725229377,-0.006913670219575826,0.0014777328230908846
5.0,-0.5904529094696,-0.32425981760025,10.22677040100098,0.0036517501534802685,0.0010901380095126982,-0.004599725490108829
5.008333333333334,-0.45555740594864,-0.11262866854668,10.14474105834961,0.002659293264714904,0.003983910319697128,-0.009509257758183513
5.016666666666667,-0.927021920681,-0.21415427327156,10.38864803314209,-0.0012414654415424918,0.03485111222661813,-0.0015204262342047253
5.025,0.57052510976791,0.10107599943876,10.48255443572998,-0.0021208180868717346,0.03897204192432543,-0.0012410183737775063
5.033333333333333,1.1467080116272,0.22655199468136,10.67214202880859,0.004633477936033724,0.0045378085552105095,-0.009518200153781306
5.041666666666667,0.297079205513,-0.00339082209393,10.6182165145874,0.005931495889405994,-0.014108090673208196,-0.0110855672029418
5.05,-0.73997592926025,-0.22909104824066,10.29879951477051,0.001518861627064342,-0.0019196443545433672,-0.00970059651982994
5.058333333333334,-0.37470883131027,0.07144974917173,10.40791606903076,0.0015251204457375064,0.0028783489274211635,-0.004854098465954846
5.066666666666666,-0.10443866252899,-0.03098611533642,10.55002117156982,0.003949487142087517,0.009557317412886374,-0.006764355307692891
5.075,0.59207659959793,-0.04587118327618,10.23631191253662,0.004635042543174107,0.00414820213174553,-0.008854326108889483
5.083333333333333,-0.17945767939091,-0.00365510280244,10.37337493896484,0.0038399594407716262,-0.008036220707071235,-0.011837061328291794
5.091666666666667,0.24961276352406,0.18180380761623,10.40177154541016,0.005593299918249766,-0.0087184216695115,-0.006734401507361958
5.1,-0.03814580664039,-0.06526992470026,10.37884712219238,0.006173127303911472,-0.004713277061384415,-0.00522425809182707
5.108333333333333,0.12489578872919,0.11677016317844,10.2684211730957,0.0044001163649210195,-0.005348538769314565,-0.008561059017709524
5.116666666666666,0.16994439065456,0.07508338987827,10.37045669555664,0.0037183611698742174,-0.005565359093195899,-0.003949710806007248
5.125,-0.08800143003464,-0.07952530682087,10.3134765625,0.007296570886639808,-0.010600066694436656,-0.001498073626176457
5.133333333333334,-0.53581202030182,-0.29365313053131,9.99860954284668,0.004558596296023916,-0.005984247284935571,0.005412913926734805
5.141666666666667,-0.91162270307541,-0.18651753664017,10.14425468444824,0.0005103107538881455,0.010764358766559188,-0.0016321896644573475
5.15,0.06958285719156,-0.08013329654932,10.09162425994873,0.0024487316294695824,0.022231706756520826,-0.0027614444779450794
5.158333333333333,0.21817594766617,-0.07767282426357,10.28188896179199,0.004533338397708917,0.012870871335136109,-0.0018981860120823963
5.166666666666667,0.19914230704308,0.07351692020893,10.42001152038574,0.001368204861700515,0.005962565408592021,0.0002465495825416698
5.175,0.17221899330616,0.16905744373798,10.60569190979004,0.004701876443264875,0.003731325094762619,0.0026834338837288087
5.183333333333334,0.31446757912636,0.02828949317336,10.61006259918213,0.0042432007808840275,0.0032663907437457595,-0.0029460777432648152
5.191666666666666,0.36932229995728,-0.00788914225996,10.4792652130127,0.0028470552241667978,-0.0031074634848033992,-0.00381604196552867
5.2,-0.10760737210512,-0.06584907323122,10.54397678375244,0.005283939947974768,-0.0032272737447149973,0.0021653001591571477
5.208333333333333,-0.04271677881479,-0.10759306699038,10.57640838623047,0.006347702194704014,-0.003685726523399026,0.005291316696134787
5.216666666666667,0.32365900278091,-0.10202815383673,10.49153232574463,0.003897629101864998,-0.005945801537737961,0.0026391757354374324
5.225,-0.57593977451324,-0.1259973347187,10.84338092803955,0.004876228190286295,-0.002022019621804906,0.0007441193277472591
5.233333333333333,0.05483369529247,0.10734986513853,10.57674407958984,0.004887850911879741,0.0012050305890275114,0.0021223829540865974
5.241666666666666,0.40850600600243,0.03043534606695,10.27281284332275,0.006794978019188236,-0.00161028386411976,0.0060582347894152355
5.25,-0.38201883435249,-0.02545730024576,10.15658664703369,0.0040563326968878,-0.007957538861021638,0.009081206627818314
5.258333333333334,0.23725980520248,0.10948141664267,9.74650001525879,0.0056022412735501695,0.0011925132117554863,0.0011196436367626773
5.266666666666667,0.42265450954437,0.07891002297401,9.85717487335205,0.0065891104654387175,-0.006336973088492105,0.002300980544504117
5.275,-0.09461101144552,-0.10875885933638,9.99042701721191,0.004016321562326893,-0.0015418848367400005,0.0024252612219916115
5.283333333333333,-0.49891793727875,-0.1441870033741,9.92805290222168,0.003381283258241996,0.01079744230131967,0.008262651817566167
5.291666666666667,-0.72869569063187,-0.33759522438049,9.96196174621582,-0.0003451246762724463,0.03285547038317253,0.005731886244069401
5.3,0.06489109247923,-0.08388755470514,10.34669399261475,-0.0017694345269075478,0.0363442634260414,0.0007825657251306307
5.308333333333334,0.64525675773621,0.18302439153194,10.64913940429688,-0.0023680386286632255,0.03649537285076828,0.006732390612679503
5.316666666666666,-1.15033447742462,-0.15616801381111,11.00919055938721,0.002136688472381585,0.018233715232634208,0.00671316747900648
5.325,-0.09514186531305,-0.06512837857008,10.85914134979248,0.001384745848857756,0.030480723397365093,0.008716857062370943
5.333333333333333,0.93974763154984,0.0511070638895,10.99818229675293,0.0007157313699098302,0.016188673831562316,0.00460017229779951
5.341666666666667,-0.56867247819901,-0.12965957820415,11.3338794708252,0.004082709174875589,-0.0038813117786274894,-0.002398437936313143
5.35,0.38825643062592,0.13272093236446,10.51926517486572,0.0064865116642946,-0.00925309807172338,-0.0009374696342620789
5.358333333333333,0.01371207926422,-0.21308332681656,10.69360637664795,0.009537199103385989,-0.017927262373166417,0.0031242281358803722
5.366666666666666,0.48269879817963,-0.03568955138326,10.70600700378418,0.01094183868756433,-0.029546607161452295,-0.0026671165604913
5.375,-0.07810105383396,-0.15703663229942,10.23758125305176,0.010564079689909573,-0.0339380058349923,-0.005084330822786785
5.383333333333334,-0.22123350203037,-0.17006774246693,10.0861644744873,0.012791519537624708,-0.055099246668977496,-0.010174025418456521
5.391666666666667,-0.80569624900818,-0.24578599631786,10.29828453063965,0.009698361961227753,-0.01603935683908494,-0.002260298418184363
5.4,1.09254682064056,0.23700952529907,9.90805530548096,0.007845104569047147,-0.022011088827342925,0.002332497651603911
5.408333333333333,-0.54136317968369,0.00790216308087,10.51343154907227,0.013519098268326358,-0.04630035384205888,-0.006054435103524055
5.416666666666667,0.19555139541626,0.02283914573491,9.76602077484131,0.007065892242265798,-0.00446560984193957,0.0027849148854230503
5.425,-0.4547133743763,-0.23472054302692,9.92794609069824,0.010149215368129422,-0.025597792571569633,-0.0024748841834633345
5.433333333333334,0.36085376143456,0.03933348506689,9.78161334991455,0.0036752203008839353,-0.006310149542739332,0.006511322754919091
5.441666666666666,-0.74042654037476,-0.14767743647099,9.95882320404053,0.008815210930379026,-0.011672101385302069,-0.002619729197918982
5.45,-0.40225446224213,-0.02185174636543,9.86600303649902,0.0014240862517339457,0.015945252585550723,-0.005163011628539164
5.458333333333333,0.4989823102951,0.17300581932068,9.86480045318604,0.0013360171529533304,0.021754705476963235,-0.0050883546927463046
5.466666666666667,-0.1808095574379,0.00057222740725,10.45647621154785,0.005229175577168127,0.005708416616814344,-0.004251024336734728
5.475,0.83030915260315,0.0127463657409,10.04189777374268,0.0028233616729178785,0.01863472279436751,0.006293832479576127
5.483333333333333,-0.3876197040081,-0.21041518449783,10.43827247619629,0.005362621273875756,-0.0079083629673149,-0.0023336151909793094
5.491666666666666,0.12885844707489,-0.0070312381722,10.31326770782471,0.0030518052385410917,0.012321890845037915,7.532838268191341e-05
5.5,0.82263135910034,0.08462413400412,10.10914134979248,0.012250810451365463,-0.02745216828334855,-0.0010662207943440468
5.508333333333334,-1.37533438205719,-0.5887576341629,10.67668342590332,0.006585757067089436,0.000255937696768952,0.006311713629731107
5.516666666666667,0.03401892259717,0.04113600030541,10.1414794921875,0.005137976873995114,-0.007478744629066102,0.004556361217273119
5.525,-0.1065129339695,-0.09202821552753,10.24523258209229,0.0022670041745853605,0.008771175145635687,-0.0032129678363085525
5.533333333333333,0.25436225533485,0.16196182370186,10.21209239959717,0.005687181548161475,0.004865945891765066,-0.008444827120438286
5.541666666666667,0.62156802415848,0.18339145183563,10.11724662780762,0.006808836339681086,-0.011448126416734445,-0.0055939698697113965
5.55,-0.68663716316223,-0.00717430142686,10.08781909942627,0.005913837362873355,-0.003169603823547147,0.0019069033133517848
5.558333333333334,0.5540663599968,0.0332965888083,9.788987159729,0.009347648612799676,-0.014921725917524853,-0.0037056198686081557
5.566666666666666,0.0004291854857,-0.07469713687897,10.05398464202881,0.007909928614752676,-0.007595426454919846,0.00014819799018392317
5.575,-0.71857458353043,-0.25542086362839,10.01598262786865,0.005542783601470987,-0.014677187392212163,-0.001587037120561522
5.583333333333333,0.43462094664574,-0.02908376045525,9.60990142822266,0.0036504092102594425,0.00910177018456338,0.007336358617355286
5.591666666666667,-0.8378050327301,-0.27007657289505,10.4052619934082,0.003402294662975308,0.008220629008099715,0.01110054332288435
5.6,0.67254596948624,0.16438628733158,10.19279384613037,0.003760607383185921,0.009924569407802954,0.006922164247036939
5.608333333333333,0.12036120891571,0.0973999351263,9.846360206604,0.004036439091604365,-0.0037699952861026996,0.009188275066315244
5.616666666666666,-0.88323330879211,-0.1474202722311,10.11527252197266,0.0037366901680172693,0.008137476484399917,0.0028314086326140064
5.625,0.96797275543213,0.26048508286476,9.83351421356201,0.007761728381427617,-0.004347810996859036,0.011053825651699534
5.633333333333334,0.14241999387741,-0.20479318499565,10.07296276092529,0.004204307185698519,0.0018317985295710274,0.007088244590219761
5.641666666666667,0.89754486083984,0.23973399400711,9.48427295684814,0.012201186189522041,-0.04618993668655068,-0.0005342280665845738
5.65,-2.56432271003723,-0.79162657260895,10.41702175140381,0.003248508293219084,0.012534687819108336,-0.0041991657763636005
5.658333333333333,1.54328310489655,0.13175536692142,9.68974876403809,-0.002098465348806489,0.019488594657684936,0.00570238133202376
5.666666666666667,-0.40722551941872,-0.08334469795227,10.05355739593506,0.0026776222628577817,0.004690700529362284,0.01067494833444629
5.675,-0.18042330443859,0.21305458247662,9.85957145690918,0.007693554058264805,-0.0029568065894024203,0.008769163210655838
5.683333333333334,0.19940684735775,-0.19686102867126,9.84914302825928,0.003688408409840677,0.014921949581444584,0.014558941999515431
5.691666666666666,0.08485393226147,0.04507738351822,10.19280815124512,0.005460973581437841,-0.0037820663758326525,0.0047519475127989754
5.7,-0.34978833794594,0.00771791767329,10.39109992980957,0.006165974739819793,-0.010751170917676925,0.015173640150700341
5.708333333333333,0.8285853266716,0.03907598182559,9.77913761138916,0.004683994772961112,-0.005970389484591329,0.015721727025417173
5.716666666666667,-1.84865939617157,-0.63992911577225,10.55276107788086,0.004604866639369444,-0.005348091441475276,0.0005733450981247111
5.725,1.8631796836853,0.47986277937889,9.65501499176025,0.006671815661299226,-0.005333563169520795,0.005721828649765123
5.733333333333333,-1.55592715740204,-0.74040198326111,10.37119197845459,0.01442236760867547,-0.030269940438869134,-0.0036676204089527925
5.741666666666666,1.31708896160126,0.08240743726492,9.7138032913208,0.007442310816848339,-0.009402861351742823,0.010026275113714143
5.75,-0.9287217259407,-0.23971575498581,10.6364164352417,0.011433150296791893,-0.04018914815438374,-0.005463878611650267
5.758333333333334,1.45941781997681,0.52512508630753,9.70251083374023,0.012299090649096052,-0.03868347177545861,0.003436717580510441
5.766666666666667,-1.66393268108368,-0.42864370346069,9.99782657623291,0.013061762768943247,-0.03815058572490128,-0.0006088858151097212
5.775,1.0299164056778,0.4391702413559,9.00834083557129,0.003821183114789285,-0.008261981345955753,0.017193870461147915
5.783333333333333,-0.7447469830513,-0.23841834068298,9.44939231872559,0.00949830446790326,-0.0186358400736686,0.01158604175079506
5.791666666666667,0.68306791782379,-0.00272523309104,9.07280158996582,0.005662146273468815,-0.007543567634474239,0.008792857021979062
5.8,-0.09414572268724,-0.06957570463419,9.03976249694824,0.00806192489292848,-0.0225064222259354,0.00029751358476199513
5.808333333333334,-0.28961861133575,0.02326819859445,9.36712741851807,0.005385420949669009,0.0016292837239846817,0.006540605043342394
5.816666666666666,0.66370517015457,-0.05496959760785,9.06548500061035,0.004121602509986619,0.016272494746277916,0.009601574780954835
5.825,-1.2699943780899,-0.13179828226566,9.62210464477539,-0.0025772590606132424,0.0009850805957353779,0.0013896633341986381
5.833333333333333,1.21561479568481,0.29968154430389,8.90062046051025,-0.005576535527247097,0.04567068269182342,0.007837952004955469
5.841666666666667,-1.52507174015045,-0.291120916605,9.60252571105957,0.004220401105090774,0.014394873591312283,-0.0026112349103835646
5.85,2.12358069419861,0.24350365996361,9.26326656341553,-0.010229458700427576,0.061283543645007724,0.02284729644249267
5.858333333333333,-0.54187828302383,-0.11589728295803,10.20981788635254,0.00516144702139878,-0.004783911167514971,0.011294116643132969
5.866666666666666,-0.45601519942284,-0.3025509417057,10.07884216308594,0.0008447061288929542,0.006502605583686856,0.009840748493087352
5.875,-0.46219223737717,-0.21820585429668,9.77521228790283,-0.003533504760783358,0.03196672775433191,0.009078522660782228
5.883333333333334,0.17431288957596,-0.0932225510478,10.04568767547607,-0.004481703761331826,0.03952281692726738,0.009374472678701057
5.891666666666667,0.43321907520294,0.27974054217339,10.0666036605835,0.007086456319159646,0.004560161423313082,0.008522389606592354
5.9,-0.78295004367828,-0.35711959004402,10.11238193511963,0.001045432793456162,0.0063376430399539095,0.011760840825655943
5.908333333333333,1.0362251996994,0.44839027523994,9.75139904022217,0.005030907915349577,-0.011033708382496368,0.004310705672733643
5.916666666666667,-0.46251967549324,0.06873456388712,9.97014713287354,0.012888306717897799,-0.03503910227125328,0.004242307165502666
5.925,-0.85937118530273,-0.45239585638046,9.52089214324951,0.006797213097939032,-0.002541494939782979,0.003497069908268378
5.933333333333334,0.12647657096386,-0.03890431299806,9.61153221130371,0.0007687071445634756,-0.004037780294899496,0.006051529033014237
5.941666666666666,-0.03498455509543,0.02449848689139,9.57671928405762,0.005768097952813259,-0.0018342575323156856,0.006462371045280694
5.95,0.25435510277748,-0.11612640321255,9.15221977233887,0.004293270810120735,-0.005202352551563962,0.005723839544447578
5.958333333333333,0.53832298517227,-0.02545696869493,9.30574893951416,0.005836049652353729,-0.004322552578395429,0.006564746182504907
5.966666666666667,0.66309714317322,0.1864817738533,9.24827575683594,0.008773186040318142,-0.02205176861299394,0.008167429764582242
5.975,-0.38631799817085,-0.0946261510253,9.18281269073486,0.010661536821644295,-0.034694418485980566,0.011224822439925846
5.983333333333333,-0.90990597009659,-0.16083167493343,8.77841949462891,-0.001320146637406328,0.011172965700075024,0.007353794520265585
5.991666666666666,-0.21591946482658,0.05258525907993,8.95519542694092,-0.003052029422609258,0.03483010446292543,0.004097015083282033
6.0,0.57434034347534,0.03247508406639,9.55101108551025,-0.004735182601647697,0.03171056494697995,-0.00027985502571998075
6.008333333333334,0.01273921318352,-0.12147673219442,9.47381210327148,-0.001351440470698021,0.008634153947105044,-0.00012606887540173403
6.016666666666667,0.25318917632103,-0.10731410235167,9.30775833129883,0.0010139155563193905,0.0052470577676203235,0.003537975178359255
6.025,-0.58739143610001,-0.2204508036375,9.75928783416748,0.0034630940584982296,0.0065142283052803006,-0.001296005758318119
6.033333333333333,0.27944725751877,-0.12550377845764,9.80311393737793,-0.0046752770815804414,0.02552648643338283,0.004266447004293658
6.041666666666667,-0.04150791838765,0.08805853128433,9.65876865386963,0.003446553071340989,-0.016842711865474806,0.00313182802781134
6.05,-0.85312670469284,-0.14849302172661,9.67298984527588,-0.0021543469989140497,0.02126115514794427,0.014756092902181495
6.058333333333334,0.75145620107651,0.17125336825848,9.35161972045898,0.0029941355774475457,0.006836106693124542,0.013493615145645626
6.066666666666666,-0.65608018636703,-0.2424456179142,10.01473140716553,0.004083156242640574,-0.0025459650972845718,0.00871149276933938
6.075,1.02749156951904,0.16312773525715,9.25969886779785,0.007565696838657254,-0.023544476645767136,0.006711825495488436
6.083333333333333,-0.02774024941027,-0.19515439867973,9.42537593841553,0.009370447768444144,-0.0319396821051054,0.005774356381374968
6.091666666666667,-0.50027823448181,-0.28822687268257,9.11316871643066,0.014018010289633669,-0.04229208418084043,0.0067565312316935815
6.1,-1.56160867214203,-0.65429198741913,9.07495498657227,0.002921489536337142,0.007829681121265303,0.0019411029570788171
6.108333333333333,1.91267764568329,0.39490130543709,8.9858455657959,0.0006656616007474269,0.020888539380144736,-0.00018150343336240872
6.116666666666666,-0.4294852912426,-0.21993561089039,9.18748378753662,0.004454209743968639,-0.00687164741010955,-0.004231800942987401
6.125,0.25526332855225,0.19437147676945,8.79112434387207,0.0063955361048927085,-0.003262590537705971,0.001823975103757305
6.133333333333334,-0.16461552679539,-0.03484149649739,9.16171169281006,0.0019046681045638363,0.01396346854244937,0.007410569265606073
6.141666666666667,0.70961207151413,0.30394574999809,9.37405776977539,0.002391508515992413,-0.0027632330090794992,0.004911097915512284
6.15,-0.46813210844994,-0.26253795623779,9.04996299743652,0.005062201618603944,-0.02093011590206894,0.0046097841247105
6.158333333333333,-0.74195724725723,-0.20120231807232,8.96802711486816,-0.004512997464586192,0.02499181315206278,0.00927790812205048
6.166666666666667,-0.08344493806362,-0.09678486734629,9.59435176849365,0.00288103133401125,0.006217832519968007,0.009296237120193531
6.175,0.13308580219746,-0.11851545423269,9.2518949508667,-0.003672538154367979,0.022331400527452173,0.009154075292550884
6.183333333333334,-0.52428191900253,-0.14529569447041,9.80794239044189,-0.002911207497890218,0.014984314364330977,0.0031061222815082687
6.191666666666666,1.14826726913452,0.25753098726273,9.53068542480469,0.004921827021724193,0.00011198670406072325,0.000505840173765721
6.2,-0.65178853273392,-0.22379103302956,9.63515758514404,0.006763684836082478,-0.010868299031072566,0.0005903331530469372
6.208333333333333,0.52768677473068,0.18744012713432,9.11329364776611,0.009235886352881422,-0.020443273410045752,0.005455160400120813
6.216666666666667,-0.66337609291077,-0.26985532045364,9.09659194946289,0.008064607299518566,-0.013586377415661804,0.0035279165437577587
6.225,0.82854956388474,0.13416586816311,8.91821479797363,0.005944459554219917,-0.022137154134849926,0.0010849969902892362
6.233333333333333,-0.93811678886414,-0.43474262952805,9.021315574646,0.00639218322669221,-0.020175490481843566,-0.0012124070771132262
6.241666666666666,0.02668725699186,-0.0529167316854,8.74416446685791,0.0006435323965645864,0.006804812989870174,0.005824873218302355
6.25,0.15714794397354,-0.17343477904797,9.32540512084961,0.0003158427454514,0.020668811945456365,0.009690091597686372
6.258333333333334,0.73207914829254,0.18319146335125,8.85064220428467,0.0024561075974066887,-0.005563571342284392,0.003561222181991973
6.266666666666667,-1.3503782749176,-0.39395704865456,9.08707332611084,0.0010405151780781277,0.020850762023963104,-0.0022754984621207778
6.275,1.02802801132202,0.45450595021248,8.99012184143066,-0.0019236680944657355,0.018333858411999623,-0.0001068456116913849
6.283333333333333,-0.16935801506042,-0.12149079889059,9.44902801513672,0.004726018102576172,-0.008276733801978575,0.0034362707728197604
6.291666666666667,-0.82829207181931,-0.01964885927737,8.94503021240234,-0.0016451541094943576,0.013405994024890061,0.002615481924114034
6.3,0.63105946779251,0.08001166582108,9.49079132080078,0.00010215154645053079,0.011519879882760703,-0.0006710262188720449
6.308333333333334,0.86397045850754,0.17012321949005,9.50524806976318,0.005504783621666839,-0.012217058005440568,-0.0008981289713115848
6.316666666666666,-0.94707214832306,-0.45118701457977,8.98322010040283,0.006759213118135059,-0.017219577247748204,0.003799724642290987
6.325,-0.19491496682167,-0.08485417813063,9.22243976593018,0.00640648939517296,-0.003586704264375312,0.009156309851153071
6.333333333333333,0.59560292959213,-0.23445588350296,9.23129463195801,0.010627113383960378,-0.017677360074970602,0.006235267902729523
6.341666666666667,-1.34099352359772,-0.4302864074707,9.22045803070068,0.002535012587227409,0.0010870086651946047,-0.005089695115818346
6.35,0.1895861774683,0.15756304562092,9.22522163391113,0.0024476135699455755,0.01015793201921305,-0.00508656590153758
6.358333333333333,1.07477164268494,0.29355996847153,9.41370677947998,0.004960273289070413,-0.0018145869407662216,0.0030875693593713552
6.366666666666666,-0.02744203805923,0.04062926024199,8.95172119140625,0.010114344602606216,-0.03741966035778296,0.0018545982053642808
6.375,-1.00303602218628,-0.2163377404213,8.76472854614258,0.004157143747120238,-0.00324873221721312,-0.0015204262342047253
6.383333333333334,1.22361540794373,0.16230516135693,8.8753833770752,0.003029900218426418,-0.0015651317103355655,-0.004640854684193743
6.391666666666667,-0.67073637247086,-0.26691550016403,8.80959129333496,0.004725123967046027,-0.014621754110241114,-0.009922335889498158
6.4,-0.5116571187973,-0.11865127086639,8.71932125091553,0.0010910322100612447,0.016908204822344747,0.0026856692225539092
6.408333333333333,0.18075948953629,-0.09051207453012,9.19424247741699,-0.0010282212046515307,0.026810200819017395,0.004621631030372112
6.416666666666667,0.22602269053459,-0.05226582288742,9.18169689178467,-0.0030994165251072713,0.018048188612007413,-0.002937583195655094
6.425,-0.11965992301702,-0.04152949899435,9.19512367248535,-0.00012964529561193837,0.013536533651087873,0.0016346482770905493
6.433333333333334,-0.54552584886551,-0.28175762295723,9.26757335662842,-0.0037498782769740113,0.02655873183308676,0.002369603235803609
6.441666666666666,0.13947738707066,-0.04674591869116,9.46398735046387,-0.0036403505756579463,0.028919617897658137,0.004642866099024982
6.45,0.82515913248062,0.16803458333015,9.64497947692871,0.00329902591036956,0.005574524112416034,-0.0008525296197250782
6.458333333333333,-0.61842048168182,-0.36438012123108,9.62599563598633,0.005287516490094998,-0.009085453121400175,-0.006246668000700454
6.466666666666667,0.50740838050842,-0.00280391448177,9.42671775817871,0.00749908608233761,-0.012518818083784421,-0.009676455380667253
6.475,0.05450312793255,-0.17084555327892,9.2471923828125,0.015960453409710227,-0.03603289828271917,-0.01227964333135469
6.483333333333333,-0.42148697376251,-0.31966564059258,8.51211357116699,0.011809344687306265,-0.02678561027142081,-0.011303727949895174
6.491666666666666,0.1869753152132,0.04288129508495,8.24197101593018,0.01125432839226888,-0.015754137487823852,-0.011968048282328897
6.5,-0.19055889546871,-0.08544071018696,8.09772682189941,0.006381900928170981,-0.0005918978252058968,-0.018857579443336644
6.508333333333334,-0.05883955210447,0.01556461304426,8.21809768676758,-0.00402213318319792,0.03094655396450671,-0.010653712745644812
6.516666666666667,0.45216822624207,0.22440022230148,8.75306797027588,-0.007694224529875219,0.04366654994180872,-0.004649795519345712
6.525,0.93748736381531,0.2613291144371,8.86602783203125,-0.0028097267562704554,0.024212154017590578,-0.0008261535318487462
6.533333333333333,-1.0561500787735,-0.38255697488785,9.15680027008057,-0.008537365206386125,0.047505384301049426,-0.004263988781771738
6.541666666666667,-0.35776871442795,-0.07097294181585,9.286301612854,-0.011943014568082238,0.055099475534383664,-0.004518362277766364
6.55,0.52873969078064,-0.0127269718796,9.894944190979,-0.003508022938474324,0.03416600779441144,-0.003959546296837797
6.558333333333334,-0.83334195613861,-0.38769838213921,9.9929723739624,-0.0003598774248789471,0.01113317744921076,-0.004386928516038582
6.566666666666666,-0.91575711965561,-0.28220814466476,9.89188957214355,-0.0030216290746619486,0.026591813287252464,-0.0035598807186225383
6.575,0.60456603765488,0.16768434643745,10.39771556854248,0.005566253748874478,0.002416767194530499,-0.009577211018169808
6.583333333333333,0.21766214072704,-0.03858800977468,10.27016448974609,0.011159329483055903,-0.030917271676083408,-0.010470869051756888
6.591666666666667,-0.26515755057335,0.0161601677537,9.51732730865479,0.017885461147025092,-0.04587878792506696,-0.008532895048884532
6.6,-0.88815653324127,-0.35644003748894,9.6864709854126,0.020649142004092663,-0.04130051856678734,-0.001553061140754222
6.608333333333333,0.47408276796341,-0.08730617910624,9.58985042572021,0.013534297011891249,-0.028936828576202705,-3.576421835821469e-05
6.616666666666666,0.04856289178133,0.01444048434496,9.39073467254639,0.021278147364055717,-0.057423478898451986,-0.008315629477758518
6.625,-1.46184802055359,-0.55941671133041,8.95643901824951,0.013742176500620614,-0.024835119411425216,-0.004064156772887109
6.633333333333334,0.95374578237534,0.18899956345558,8.54244041442871,0.01131378658449667,-0.025467251905074602,-0.003705620388756939
6.641666666666667,0.31214290857315,0.05644308403134,9.16305637359619,0.014008619525899192,-0.01732284443990795,0.002572564979117788
6.65,0.38860335946083,0.05167942494154,8.49957466125488,0.01837409295040578,-0.04698747853162387,-0.008137254380926186
6.658333333333333,-0.74117755889893,-0.2302071005106,8.59125137329102,0.006795425347027698,0.0006395089167165225,-0.006778213628185741
6.666666666666667,1.69422233104706,0.55297911167145,8.79273223876953,0.011814932124108954,-0.017002756403718258,-0.008562401001227567
6.675,0.43241605162621,-0.08916432410479,8.5726432800293,0.013675119976907507,-0.030174270537897306,-0.0063924068906119425
6.683333333333334,-1.61546230316162,-0.29574880003929,8.78078746795654,0.00959241080203192,-0.01024890705846633,-0.0036825965288953453
6.691666666666666,0.8240647315979,0.06356731802225,8.94998073577881,0.0016319658705004634,0.027724195624537984,0.0008281650767171373
6.7,0.04691549763083,-0.10029716044664,8.95205497741699,0.0034722588176440603,0.0006777319752730424,-0.008519484576379754
6.708333333333333,-1.17563247680664,-0.47581562399864,9.26960182189941,-0.007509815188549519,0.0341230851277798,-0.006578604502997757
6.716666666666667,1.04668486118317,0.2110660970211,9.35091114044189,-0.0019495971145770822,0.03618959202335673,0.00278670341655747
6.725,-0.6364027261734,-0.33425951004028,9.8758373260498,0.00042850005115986287,0.011569502064009338,-0.005492936716005228
6.733333333333333,0.62630295753479,0.32653442025185,9.34782123565674,0.0007816716546190617,0.016003370874855254,-0.005665946479508604
6.741666666666666,-0.81968718767166,-0.40222582221031,9.7689094543457,0.005275445920513656,0.01055916220456869,-0.001130596406894319
6.75,1.19252192974091,0.24700197577477,9.33305835723877,0.008492884174398104,-0.00983784190242875,-0.01318492564698104
6.758333333333334,-2.01068568229675,-0.64801180362701,10.04581069946289,-0.0009718927468531149,0.018858694642043126,-0.002686339694164322
6.766666666666667,1.21543967723846,0.3691081404686,9.01128768920898,0.0012676179955364185,0.015516975710671184,-0.0072319715451512265
6.775,-1.28069484233856,-0.44193148612976,10.14162254333496,0.005606711431051761,-0.003295672512020453,-0.011676122134369585
6.783333333333333,1.42086911201477,0.43863365054131,9.03748798370361,0.004240071826677566,0.003420624181266969,-0.005969048541370677
6.791666666666667,-1.10450625419617,-0.5864115357399,9.81340026855469,0.005211517050635488,-0.0027913969779044903,-0.006305678865089131
6.8,1.81955027580261,0.663733959198,9.59904670715332,0.01308143479090156,-0.033588413927054354,-0.0010461034601223034
6.808333333333334,-0.87909364700317,-0.32324784994125,9.54841041564941,0.022587118087559453,-0.05529104004054443,-0.0051826826102002585
6.816666666666666,-0.70918267965317,-0.13835030794144,9.2512788772583,0.007335911809664606,-0.0017072944482381049,0.001737917419807754
6.825,-0.00693825772032,-0.07087036967278,9.11624813079834,0.01251702877242709,-0.01681342957705168,-0.003552057682920447
6.833333333333333,-0.10790778696537,-0.24826802313328,9.26297473907471,-0.00019133858284530096,0.011238234993025233,0.0010928203510842081
6.841666666666667,0.46481320261955,-0.11548265069723,9.20082378387451,0.008526411916105875,-0.0074984150905785885,-0.0033287544863349343
6.85,-1.59122312068939,-0.61822593212128,10.05203914642334,-0.002942053873305295,0.031234456242506495,0.0013565814899213083
6.858333333333333,4.00426149368286,0.94182199239731,9.16984462738037,0.007004198971287036,-0.008210570893646829,-0.008605318466372596
6.866666666666666,-2.36391568183899,-0.85155159235001,9.77314949035645,0.019765765228729595,-0.04968275151878464,-0.01893223533883211
6.875,-0.64520812034607,-0.39992853999138,9.11159801483154,-0.0034029651345855467,0.04048711010728241,-0.006671367813311153
6.883333333333334,1.10738885402679,0.20028676092625,9.05246639251709,0.0017008120956823606,0.01229417316375517,-0.009492718071397793
6.891666666666667,-0.69691580533981,-0.35769936442375,9.26382541656494,0.005032249378719012,0.0022743806626710755,-0.01330428935927626
6.9,0.24737392365932,0.03432649374008,9.12056159973145,0.003565022127957457,0.01460588333461998,-0.017383199368409104
6.908333333333333,-0.12206326425076,-0.02853984385729,9.41561603546143,0.004392963800829167,-0.0051491533080463125,-0.023770687213234165
6.916666666666667,0.24959845840931,0.08694280683994,10.13926219940186,-0.0022844390371982676,0.02405747013133825,-0.012756649812398895
6.925,-0.0814202055335,0.14780573546886,10.13231372833252,0.015354695573528325,-0.0437633308802978,-0.01837610072419641
6.933333333333334,0.11330818384886,-0.02270312421024,9.1508321762085,-0.0017940224737609167,0.02607814985021972,-0.0019813376255221294
6.941666666666666,-0.71977627277374,-0.25942647457123,10.17442512512207,0.005518195134469009,0.002421461015951824,-0.013251089595610003
6.95,0.8901714682579,0.11792913079262,9.25288867950439,0.003232414893975611,0.006807942724299724,-0.015138099433715505
6.958333333333333,-0.90545982122421,-0.16332022845745,9.44551658630371,0.008799115450540771,-0.025672001139225804,-0.02075978594441243
6.966666666666667,0.44731733202934,0.12536787986755,9.47742366790771,-0.00264074060265212,0.028428306288430575,-0.0015713902689342514
6.975,0.34905079007149,0.22384221851826,9.65704727172852,0.016133684756538723,-0.030665804770747204,-0.01488841975914203
6.983333333333333,-1.14439046382904,-0.559101998806,9.89125919342041,0.002532106516717591,0.005080306432678655,-0.00978039564518063
6.991666666666666,-0.77184188365936,-0.25228053331375,9.58261394500732,-0.0021080770456801527,0.02193195965345404,-0.010200625820438347
7.0,1.97479999065399,0.24987936019897,9.78211402893066,-0.018662663099272767,0.06589266822122947,0.00430221164527253
7.008333333333334,0.18893921375275,0.08647143095732,10.07366371154785,0.016560398064575096,-0.044363270333676236,-0.0131491612660763
7.016666666666667,-0.98825097084045,-0.61326342821121,9.33541774749756,0.0005518864955894359,0.013663943022707525,-0.002281310082991805
7.025,0.15527391433716,0.07002633064985,9.96996879577637,0.009164804918911577,-0.0046131370029109985,-0.01262611018620108
7.033333333333333,1.3545970916748,0.24568191170692,9.77809429168701,0.011037732252455888,-0.027303749067441756,-0.010107416222582878
7.041666666666667,-1.82556259632111,-0.70116484165192,10.1168737411499,0.009401295704305222,-0.010310824513513435,-0.008562401001227567
7.05,-0.11978866159916,0.04971941187978,10.3858060836792,0.001247947664061084,-0.004956026795488377,-0.0061974915868451075
7.058333333333334,0.19341287016869,0.12283577024937,10.51753330230713,0.0030844404051647177,0.004385363908898198,-0.006104504612612154
7.066666666666666,-0.25343242287636,-0.09129863977432,10.46159648895264,0.009158098122213186,-0.02301829427101637,-0.008559718594637306
7.075,0.26550614833832,-0.05084221437573,10.21286487579346,0.0077521175948140186,-0.006585533923318487,-0.0064898645424952715
7.083333333333333,0.17097167670727,-0.07634581625462,10.02730178833008,0.01946601812566263,-0.05374468387596829,-0.0067750844139048
7.091666666666667,0.54706799983978,-0.12674318253994,9.59732246398926,0.016945757474309604,-0.03763468980986096,-0.0047539584074814305
7.1,-0.95920085906982,-0.25623801350594,10.00269031524658,0.015211862754126828,-0.03637131531705173,-0.009641584615144047
7.108333333333333,0.44754204154015,0.08176517486572,9.05928134918213,0.01449501469008309,-0.0270627870842493,-0.011864780049871931
7.116666666666666,-0.57882952690125,0.02703043632209,9.04040050506592,0.013390347953485877,-0.0217129021702273,-0.006106292883672094
7.125,0.77951675653458,0.10398110002279,9.16124534606934,0.002356191723001439,0.015631871346059423,0.006565640318035051
7.133333333333334,-0.86098057031631,-0.20971420407295,9.48044967651367,0.006528981801600339,-0.011054720307378113,-0.0008163182360739269
7.141666666666667,0.9947817325592,0.00037914700806,9.1939582824707,-0.007399169167635143,0.026982985878304,-0.0008315180849547882
7.15,1.04396462440491,0.28722241520882,9.87660980224609,3.5987744113319843e-05,0.0064444883346797145,-0.005228728769477446
7.158333333333333,-0.52990812063217,-0.19594506919384,10.14738464355469,0.008504955264128058,-0.026056913221120852,-0.01407321990768499
7.166666666666667,-0.21307604014874,-0.1267483830452,9.16441535949707,-0.00048058172279273864,0.0200930094700514,0.00441889269090336
7.175,-1.07990074157715,-0.53162080049515,9.89976406097412,0.007283159373837638,0.001088349868489735,-0.003359153793984851
7.183333333333334,-0.23435631394386,-0.33505934476852,9.7595386505127,-0.015560564167575232,0.06712160887338174,0.0008956700986039041
7.191666666666666,0.89849007129669,0.11482430249453,9.69064331054688,-0.006585087115627806,0.020777002864740823,-0.011867014608474117
7.2,-1.64711236953735,-0.48378211259842,10.64436531066895,-0.008979948249746413,0.028584327997011726,-0.012796883310507661
7.208333333333333,1.81610453128815,0.78475165367126,10.10956001281738,-0.009701491175508696,0.02849111527826443,-0.0005454043380894197
7.216666666666667,0.25526356697083,-2.857660184e-05,10.95512390136719,0.0026740457207375503,0.007306853185161035,-0.0002995253246859398
7.225,-0.14240430295467,0.17571622133255,10.50195407867432,0.013112729014304712,-0.026289384297744196,-0.0046287841146124
7.233333333333333,-0.73456120491028,-0.68369019031525,10.01542472839355,0.003465328877174722,0.01409445341589186,0.0011031025195682843
7.241666666666666,-0.63608795404434,-0.54104787111282,10.19239330291748,0.0028025736720299938,0.007138984570918099,-0.009826219700984089
7.25,0.84935003519058,-0.08580550551414,9.90314674377441,-0.0036262680710969293,0.016126532712595655,-0.005137306402384701
7.258333333333334,-0.66034328937531,-0.1868966370821,10.2564115524292,0.0012886295303067084,0.0012412417776229343,-0.012248351188546325
7.266666666666667,0.20397754013538,-0.09020481258631,10.07759761810303,0.0011482548033898054,0.005438172865347195,-0.012650250285066379
7.275,0.60797017812729,0.17898559570312,10.43362998962402,0.002352167853041919,0.005610735301011281,-0.010251365280988077
7.283333333333333,0.84284096956253,0.22408425807953,10.33949851989746,0.008745916727171905,-0.01921164254907357,-0.009888358739356314
7.291666666666667,0.4180391728878,0.06297612190247,9.7663402557373,0.01368987243293033,-0.025906704693856555,-0.004433868810845739
7.3,-0.99369442462921,-0.49514839053154,9.90596485137939,0.009870700732972283,-0.025422548249464067,-0.010275954788287446
7.308333333333334,-0.47405475378036,-0.14274168014526,9.43703937530518,-0.0014564978844751667,0.01007858126199904,-0.010225437951360057
7.316666666666666,-0.28876027464867,-0.19015116989613,10.04683303833008,0.00022710278494891524,0.011385985297767786,-0.008452649115843161
7.325,-0.44009298086166,-0.23981337249279,10.30778312683105,-0.0013787106941043233,0.021437741453567877,-0.0062565024512337844
7.333333333333333,0.18353480100632,-0.05178658291698,10.23195552825928,-0.0061644101326794095,0.02321030818561104,-0.0035098112095344395
7.341666666666667,-0.13634748756886,-0.15436550974846,10.60737323760986,-0.001988490579725439,0.01770887692199609,-0.009210179566281134
7.35,0.45292517542839,0.15446564555168,10.49387836456299,-0.000387594683541034,0.008123618684055851,-0.013763411049124702
7.358333333333333,-0.20021522045135,-0.07269434630871,10.56924819946289,-0.0007407663845281843,0.005837838443562454,-0.010738653020256115
7.366666666666666,0.57570374011993,0.30061253905296,10.35555744171143,0.0040049217244302665,-0.005670863964849661,-0.006927975867907966
7.375,-0.48396855592728,-0.23442724347115,10.51078033447266,0.010447399944650439,-0.013572969023751637,-0.0009052818604961437
7.383333333333334,0.45591506361961,-0.01806092448533,10.01911544799805,0.005361279290357714,-0.00603923531966177,-0.00033976005814800284
7.391666666666667,-0.44684445858002,-0.27941864728928,10.4249153137207,0.010930215445822277,-0.028094133667085262,-0.009817278345683685
7.4,-0.01534257270396,-0.10646994411945,10.2569408416748,0.0046102314525497895,0.0021577000071518753,-0.00634904313792484
7.408333333333333,0.32391649484634,-0.06519816070795,10.07459354400635,0.007673436268913029,-0.010717194807832297,-0.0057973802412365615
7.416666666666667,-0.26130041480064,-0.16284886002541,10.19047737121582,0.006755636576014828,-0.004996707621436609,-0.0015664726535562167
7.425,-0.74434620141983,-0.34651258587837,10.0183277130127,0.0012823707116335439,0.012447511945597626,-0.004529090863829664
7.433333333333334,0.14530999958515,-0.11733523756266,10.03707695007324,-0.0036135270299051726,0.02551396957625942,-0.004882261914631053
7.441666666666666,0.2394485771656,0.0416581556201,10.43699169158936,0.002568094301467412,0.002474660519543777,-0.012391407671867551
7.45,0.19093799591064,0.07064863294363,10.35160160064697,-0.0003124898672509012,0.006396653904342411,-0.007318252762983359
7.458333333333333,-0.1083154976368,-0.02882595732808,10.43724918365479,0.0029543475866577623,0.0019037737089593872,-0.005653875909927434
7.466666666666667,-0.04206587001681,-0.01751015894115,10.63455390930176,0.006580840101897163,-0.00518402355342091,-0.005023531687338166
7.475,0.30032640695572,-0.07255128771067,10.24742794036865,0.007714118135158653,-0.008012972663141474,-0.0065394872438925165
7.483333333333333,-0.21268263459206,-0.41416391730309,10.21018981933594,0.007196431348315001,-0.004374411138766556,-0.010250471665606713
7.491666666666666,-0.28769472241402,-0.21957062184811,10.35798931121826,0.004796205401016046,-0.003803524588256646,-0.005479078395512376
7.5,0.73178589344025,0.19794061779976,10.17611408233643,0.006939823293718187,-0.0059614486494395345,0.0013740166126086943
7.508333333333334,-0.4767299592495,-0.23322547972202,10.46367835998535,0.008704115501030577,-0.01389931548850286,-0.0037543486945499083
7.516666666666667,0.09867347031832,0.11267873644829,10.02944469451904,0.00507471847572736,-0.0017408232302432677,-0.0014028514431553801
7.525,-0.33664140105247,-0.10422407835722,10.32043647766113,0.006419229396067324,-0.001897738814280259,-0.0024891893116468656
7.533333333333333,0.7136105298996,0.14719119668007,9.96931743621826,0.004431410068175386,-0.0002092206757698952,-0.003180332929759056
7.541666666666667,-0.24032837152481,-0.19860583543777,10.20326614379883,0.008527307612081845,-0.016091216699827594,0.0009005877790006894
7.55,-0.59998762607574,-0.30901712179184,10.2092170715332,-0.00016004489584570955,0.006397548560021165,-0.0005373574109026673
7.558333333333334,-0.1980264633894,-0.24879734218121,10.32814025878906,0.0006059799396556316,0.014853997361755506,-0.0028088321005917015
7.566666666666666,0.28276619315147,-0.11320089548826,10.46750640869141,-0.0002083265564943506,0.012980846364291462,-0.0018230809682273344
7.575,-0.27011996507645,-0.30840876698494,10.58560848236084,0.0009184698394157336,0.01466131765688825,-0.005237669604629239
7.583333333333333,-0.07401762157679,-0.15441557765007,10.56195259094238,-0.0032697433618719537,0.01786758051701872,0.002856443387157881
7.591666666666667,0.36992359161377,0.07154273241758,10.56209564208984,0.001794246267717801,0.009503671361678043,0.000881364450271764
7.6,-0.23899793624878,-0.07021945714951,10.48726272583008,0.003894499887584231,-0.00502889598036973,-0.002245545962161542
7.608333333333333,-0.55546832084656,-0.24295346438885,10.27373600006104,0.004000898374619355,-0.003342612806827611,0.0003229956021267582
