Time (s),Acceleration x (m/s^2),Acceleration y (m/s^2),Acceleration z (m/s^2),Gyroscope x (rad/s),Gyroscope y (rad/s),Gyroscope z (rad/s)
0.0,-1.189317226409912,-0.427283376455307,9.552778244018555,0.11374810424162377,-0.04903923193088052,0.017523572924991567
0.008333333333333333,-1.1850495338439941,-0.3875003755092621,9.61157512664795,0.1132049525373021,-0.07012626627780402,0.02207815055254251
0.016666666666666666,-1.1105279922485352,-0.37195295095443726,9.660866737365723,0.11510713199064801,-0.09569365303986553,0.020479038831247617
0.025,-0.9686394333839417,-0.3453511893749237,9.7101411819458,0.12188000005115349,-0.11995073957847283,0.012724015686072357
0.03333333333333333,-0.8376952409744263,-0.2776354253292084,9.738478660583496,0.12841770266502653,-0.1318195663848449,0.011186601917094034
0.041666666666666664,-0.6958974599838257,-0.24131342768669128,9.76075553894043,0.13363436086492259,-0.13034294342893685,0.006460360670746866
0.05,-0.5932816863059998,-0.11989384889602661,9.748025894165039,0.13703374451597583,-0.11368797505763682,0.011564359874451464
0.058333333333333334,-0.5991191267967224,0.013645469211041927,9.777416229248047,0.13213671558115972,-0.08185422850726773,0.016910215717027294
0.06666666666666667,-0.710111677646637,0.06453773379325867,9.79055118560791,0.1181922543106935,-0.044040287150098445,0.024384491749037764
0.075,-0.8902163505554199,0.05637187138199806,9.812335968017578,0.1022145943836279,-0.008651142002027348,0.026955049734587903
0.08333333333333333,-0.950553834438324,0.015563378110527992,9.886517524719238,0.08348576421483433,0.0067388737454581625,0.024887872887549373
0.09166666666666666,-0.994931697845459,-0.010375544428825378,9.854106903076172,0.07018147693615273,0.013890375173499682,0.019246513314596734
0.1,-0.9263514280319214,-0.04789994657039642,9.800203323364258,0.06345912987376393,0.005139317297067174,0.012935022308487998
0.10833333333333334,-0.7992773652076721,-0.061918705701828,9.783368110656738,0.05814054750552349,-0.014381909406349641,0.000959822177271716
0.11666666666666667,-0.6853336095809937,0.07812324166297913,9.752433776855469,0.053239956592749396,-0.03454353792665994,-0.009516187178504174
0.125,-0.6250302791595459,0.14796128869056702,9.75932502746582,0.04093304394824849,-0.03870113186243714,-0.011838179647890147
0.13333333333333333,-0.5606956481933594,0.23586441576480865,9.779301643371582,0.03234962790124727,-0.03188715125260359,-0.0028993605922286486
0.14166666666666666,-0.5132355690002441,0.33118027448654175,9.723101615905762,0.02501930612912859,-0.010258742029148216,0.014079478336246721
0.15,-0.5797622203826904,0.4831904172897339,9.6735258102417,0.019805331896268628,0.022512682735091768,0.03690688533464511
0.15833333333333333,-0.6962447762489319,0.5702700018882751,9.659031867980957,0.00884270390744486,0.05629735707032284,0.05659776996366218
0.16666666666666666,-0.8694336414337158,0.5526309609413147,9.731027603149414,0.0027525039028675918,0.0808669281121481,0.07132146800789638
0.175,-1.0502991676330566,0.47203728556632996,9.75771427154541,0.006657062685127689,0.08551046572308069,0.07631994673548768
0.18333333333333332,-1.1801328659057617,0.36783403158187866,9.8156156539917,0.018247796696897998,0.06809774895905828,0.06944024846456723
0.19166666666666668,-1.2471965551376343,0.43363043665885925,9.881976127624512,0.03868034672236692,0.04027990369090656,0.05477201075003394
0.2,-1.1619884967803955,0.5825530290603638,9.928284645080566,0.051943950054208356,0.010408728973087419,0.03873801248234554
0.20833333333333334,-1.0434441566467285,0.7980962991714478,9.980059623718262,0.05525482937209769,-0.0017128826652637547,0.030283354032265845
0.21666666666666667,-0.9416648149490356,1.0342748165130615,9.982050895690918,0.04734020173443722,0.0013863104559981864,0.028065523410718295
0.225,-0.826381504535675,1.2356022596359253,10.039796829223633,0.026448984629040197,0.014059809435180265,0.03118148222335445
0.23333333333333334,-0.6960391402244568,1.3184627294540405,9.933602333068848,0.0065180295516173905,0.036951147904200066,0.03627073105163084
0.24166666666666667,-0.607285737991333,1.3554797172546387,9.795857429504395,-0.0017732346029102363,0.06281179863654972,0.03518662475088683
0.25,-0.6942574381828308,1.3346989154815674,9.731605529785156,-0.00358692740814636,0.08091744494907553,0.02908435521702554
0.25833333333333336,-0.8440453410148621,1.4282227754592896,9.862329483032227,-0.0005380280125501259,0.0858278729131261,0.008640187671449796
0.26666666666666666,-0.9666333198547363,1.5814253091812134,9.980870246887207,0.0033622835284143715,0.07879841760396993,-0.020276299451481534
0.275,-0.991701602935791,1.6749874353408813,10.044978141784668,0.006100481782949844,0.06990965973501811,-0.05252444843162917
0.2833333333333333,-0.9885581731796265,1.7150485515594482,10.050871849060059,0.004782123416603549,0.06215374817594796,-0.08865883811901556
0.2916666666666667,-0.9467121362686157,1.7730941772460938,10.005992889404297,0.004962286264347408,0.06641907946138648,-0.12235812901298518
0.3,-0.8065827488899231,1.9084081649780273,9.939373970031738,0.0040874029962968015,0.0826877646389489,-0.15437960345306964
0.30833333333333335,-0.6991451382637024,2.0907223224639893,9.866621017456055,0.001881198217234478,0.10127802720727427,-0.18026890813427288
0.31666666666666665,-0.679847776889801,2.2532522678375244,9.880786895751953,0.0020434784844145393,0.12189163473616575,-0.1999275976424244
0.325,-0.7304339408874512,2.2920448780059814,9.926304817199707,9.879866012266738e-05,0.13695997495378062,-0.21419035659742552
0.3333333333333333,-0.7062391042709351,2.2928645610809326,9.900195121765137,0.006183634826798365,0.1501078264855553,-0.22888724409962316
0.3416666666666667,-0.7950302958488464,2.2205212116241455,9.84911823272705,0.012419127433744917,0.1622041704728042,-0.25095153373092965
0.35,-0.8694359660148621,2.1370248794555664,9.99080753326416,0.017414943000246156,0.1565824704382423,-0.27785828246184086
0.35833333333333334,-0.793003261089325,2.065086841583252,9.975275039672852,0.02697516908438561,0.1432325931706499,-0.31436958850606833
0.36666666666666664,-0.7236547470092773,1.9778695106506348,9.876667022705078,0.03305062599561577,0.14103625093014793,-0.35136465776230863
0.375,-0.7808255553245544,1.9022399187088013,9.86548137664795,0.03849930586370117,0.14921197238436626,-0.4000737409418034
0.38333333333333336,-0.8568368554115295,1.8519287109375,9.960073471069336,0.0431777184013462,0.15812262643090555,-0.45310986168143175
0.39166666666666666,-0.8645836710929871,1.8441085815429688,9.953067779541016,0.053196193365898835,0.17555463030688503,-0.5081078333275804
0.4,-0.8158029317855835,1.8857975006103516,9.911417961120605,0.06617012799492371,0.19653173435743712,-0.5614802447338585
0.4083333333333333,-0.7223706245422363,2.0313401222229004,9.877616882324219,0.07040685526577908,0.21733355247399153,-0.5976544944526228
0.4166666666666667,-0.6256264448165894,2.120018482208252,9.83376407623291,0.07392295195160506,0.2422206264132139,-0.6233687129369101
0.425,-0.6014693379402161,2.201340675354004,9.796395301818848,0.07316340176395764,0.27023703114657704,-0.6453838672461046
0.43333333333333335,-0.6279332041740417,2.1633808612823486,9.777703285217285,0.07499678843739545,0.2900942759587508,-0.6652062412927552
0.44166666666666665,-0.6110368371009827,1.9906796216964722,9.748246192932129,0.08350913345339978,0.3112184697252593,-0.6907626674824553
0.45,-0.6168277859687805,1.81128990650177,9.60414981842041,0.09823464993731579,0.3260875305919306,-0.7234235419331325
0.4583333333333333,-0.7187495231628418,1.7090498208999634,9.556596755981445,0.11300130393769513,0.3434445165489539,-0.7608819679295331
0.4666666666666667,-0.9690225124359131,1.5918532609939575,9.603866577148438,0.128199814475966,0.3512340297108403,-0.8047466279281192
0.475,-1.132601261138916,1.6685295104980469,9.659686088562012,0.13897563835907753,0.34875925397837054,-0.857402649001166
0.48333333333333334,-1.1757501363754272,1.7156057357788086,9.703372955322266,0.14113670203751436,0.3448744010277311,-0.8973720364313476
0.49166666666666664,-1.0500152111053467,1.7247309684753418,9.500597953796387,0.14058685914095387,0.34938882526006526,-0.9310452449913913
0.5,-0.9082384705543518,1.794189691543579,9.30086612701416,0.13265256988430807,0.3605209384851374,-0.961846900106057
0.5083333333333333,-0.8018622994422913,1.8664084672927856,9.145959854125977,0.12507680036703575,0.379444329216318,-0.9818370533013824
0.5166666666666667,-0.7284597158432007,1.901222825050354,9.099456787109375,0.11457015549110397,0.40382673412897035,-0.9938419842842146
0.525,-0.7429286241531372,1.836793303489685,9.04222297668457,0.10280817970109292,0.4231793265593309,-1.004465467030595
0.5333333333333333,-0.8948225378990173,1.655760645866394,8.913773536682129,0.09939179343095521,0.43085442366288473,-1.0214567011014095
0.5416666666666666,-1.0882468223571777,1.4330745935440063,8.877208709716797,0.10029755116244797,0.4286930021221765,-1.0465000027280786
0.55,-1.1177480220794678,1.281511902809143,8.861612319946289,0.09859608250913157,0.41579018637782433,-1.0806784795259377
0.5583333333333333,-1.1186565160751343,1.1503323316574097,8.65644645690918,0.09783475965488359,0.40689742544485896,-1.1116384595674085
0.5666666666666667,-1.1194149255752563,1.1316275596618652,8.467649459838867,0.0964153780176554,0.3997714721580794,-1.1404856873370923
0.575,-1.1151983737945557,1.1277059316635132,8.352442741394043,0.09270305629376105,0.4017501675584947,-1.1663516394244868
0.5833333333333334,-1.0858908891677856,1.0948915481567383,8.211862564086914,0.08773896563374538,0.4149240598123033,-1.1887850431828784
0.5916666666666667,-1.057664394378662,1.0739383697509766,8.023344993591309,0.08286741982160996,0.4370189425066321,-1.2115192509863943
0.6,-1.0389833450317383,1.0547969341278076,7.895796298980713,0.0753877737749327,0.4576680949136977,-1.2297662986692357
0.6083333333333333,-1.0910550355911255,0.9650330543518066,7.725996494293213,0.0661757664062941,0.4799641128493547,-1.2412297424234273
0.6166666666666667,-1.214053988456726,0.724797785282135,7.564361572265625,0.06174456179683569,0.4896258615470804,-1.2506243094847909
0.625,-1.358438491821289,0.4683176577091217,7.432614803314209,0.0650706585836413,0.4956401781053472,-1.2645407909190545
0.6333333333333333,-1.3897594213485718,0.13905499875545502,7.41471004486084,0.08390732597063706,0.48414687365743314,-1.2806715576416643
0.6416666666666667,-1.6365855932235718,0.004539647605270147,7.05539608001709,0.10448485598913637,0.4680300885305461,-1.2928471306713432
0.65,-1.8220468759536743,-0.30289050936698914,7.152655124664307,0.1343186184951264,0.4484411072639274,-1.296943072427885
0.6583333333333333,-1.839951992034912,-0.4541078805923462,7.181420803070068,0.17414680013088507,0.4263691277549733,-1.304508314136473
0.6666666666666666,-1.7927155494689941,-0.5695593357086182,6.980220317840576,0.20913018407870684,0.3982358268945125,-1.3049480020324453
0.675,-1.7766090631484985,-0.6329607367515564,6.82867431640625,0.23457119552466565,0.37162445601800476,-1.3062779846808306
0.6833333333333333,-1.7827339172363281,-0.7484707236289978,6.657395839691162,0.24976479585967673,0.3449258999053105,-1.3097689893957611
0.6916666666666667,-1.8103091716766357,-0.8776252269744873,6.6038384437561035,0.2578252024386946,0.3178951144466288,-1.3105177371362369
0.7,-1.8794902563095093,-1.0317937135696411,6.590784549713135,0.25694853974211096,0.2873308468536301,-1.3101679309270549
0.7083333333333334,-1.9788591861724854,-1.2206155061721802,6.5513763427734375,0.25760567474108803,0.25298845249067675,-1.30645002488725
0.7166666666666667,-2.0440385341644287,-1.4256561994552612,6.515919208526611,0.26636123294364383,0.22290122362793846,-1.30550367059389
0.725,-2.0857059955596924,-1.545367956161499,6.398237705230713,0.2862122526167695,0.19856395929576295,-1.2962836737419814
0.7333333333333333,-2.0049126148223877,-1.6199760437011719,6.369314193725586,0.31403646034321303,0.1804304954334134,-1.2862803080554257
0.7416666666666667,-1.8751271963119507,-1.57258141040802,6.306746959686279,0.3362754866315424,0.15546227830472772,-1.2708777827328979
0.75,-1.764833927154541,-1.542284607887268,6.243365287780762,0.35410714776335867,0.12838548673821498,-1.255541836437622
0.7583333333333333,-1.7712349891662598,-1.5423964262008667,6.122436046600342,0.3574641621859444,0.095505226070364,-1.239639036304323
0.7666666666666667,-1.7570521831512451,-1.6666001081466675,6.072428226470947,0.3510922496723072,0.062053446871392845,-1.2238431620887906
0.775,-1.7614517211914062,-1.930372953414917,6.021894454956055,0.3408971696767795,0.02727078620716821,-1.2057497788008467
0.7833333333333333,-1.7914955615997314,-2.172927141189575,6.008696556091309,0.3340173590537505,-0.0042816662937301955,-1.1823330028099435
0.7916666666666666,-1.8212326765060425,-2.3005545139312744,6.099903106689453,0.3275899196313852,-0.03655051276890047,-1.1566719809684305
0.8,-1.830325961112976,-2.2915167808532715,6.196966648101807,0.31799488311896595,-0.08120277769274231,-1.1276069066215781
0.8083333333333333,-1.7959856986999512,-2.2649364471435547,6.257532119750977,0.3151456336477174,-0.12502748195259883,-1.1009522593773566
0.8166666666666667,-1.6885489225387573,-2.2267491817474365,6.269529819488525,0.3171364131415789,-0.1712609654841616,-1.083959693725997
0.825,-1.4891283512115479,-2.1590092182159424,6.256481647491455,0.32094529942212385,-0.22332673019110585,-1.0776161105884554
0.8333333333333334,-1.2408485412597656,-2.143221855163574,6.222210884094238,0.32035024936605927,-0.27081064275586647,-1.0716479000065606
0.8416666666666667,-1.0449588298797607,-2.2500500679016113,6.323399066925049,0.30572130576117224,-0.31307469300504454,-1.058418048080347
0.85,-0.8313435912132263,-2.4551007747650146,6.373337268829346,0.28901306584569225,-0.351333565356582,-1.0361686021742524
0.8583333333333333,-0.644134521484375,-2.630007266998291,6.4674553871154785,0.26664868789380425,-0.376842387541797,-1.007720116198781
0.8666666666666667,-0.5743142366409302,-2.7238242626190186,6.58691930770874,0.24069130615723588,-0.3939748024398994,-0.9646609292718893
0.875,-0.6005671620368958,-2.795464515686035,6.667831897735596,0.21809153805449855,-0.4178395887051812,-0.9270904507726236
0.8833333333333333,-0.5503674745559692,-2.830111026763916,6.796320915222168,0.2072705819132886,-0.4391863228702795,-0.8904269783616117
0.8916666666666667,-0.45185190439224243,-2.7452445030212402,6.809184551239014,0.19898728539578786,-0.4616634357600618,-0.8510805043103995
0.9,-0.2471550852060318,-2.683884620666504,6.66961669921875,0.194941011593576,-0.48589240930441197,-0.8117710481983395
0.9083333333333333,-0.023434333503246307,-2.7095649242401123,6.5541276931762695,0.1946552876981241,-0.5081078000380668,-0.7769422940413104
0.9166666666666666,0.12042248994112015,-2.6750590801239014,6.5553083419799805,0.18638568981548048,-0.540857158015962,-0.7387253997664553
0.925,0.14474627375602722,-2.6883718967437744,6.633937358856201,0.16558693433417965,-0.5721843546822412,-0.702507274468732
0.9333333333333333,0.014515702612698078,-2.842653751373291,6.763166427612305,0.1338805451405652,-0.6032242295564145,-0.6681114171468953
0.9416666666666667,-0.013976488262414932,-3.044990062713623,7.057544231414795,0.1036664166518846,-0.6321741221861208,-0.6282189950722169
0.95,0.07533635199069977,-3.218341588973999,7.211063385009766,0.06987583758917411,-0.6493608988599745,-0.5802196443232283
0.9583333333333334,0.16728553175926208,-3.447482109069824,7.197617053985596,0.04776120589088671,-0.6621571215816963,-0.5287103138365424
0.9666666666666667,0.31018826365470886,-3.555792808532715,7.189762592315674,0.05128063568926448,-0.6816627791957091,-0.48210702542048695
0.975,0.5367380976676941,-3.4284629821777344,7.203653335571289,0.06521394081147677,-0.6868743857119124,-0.4372123878703127
0.9833333333333333,0.7339525818824768,-3.3676846027374268,7.278058052062988,0.08052038427530153,-0.7032349166575689,-0.3990342092998046
0.9916666666666667,0.9156872034072876,-3.3452208042144775,7.297257900238037,0.10281986432037564,-0.7298498828015483,-0.36403438033225166
1.0,1.1493324041366577,-3.3885979652404785,7.279270172119141,0.1241970833575769,-0.7703074276595416,-0.32541841136804817
1.0083333333333333,1.3729113340377808,-3.5504095554351807,7.168828010559082,0.14421931099928106,-0.8116018708900923,-0.2824378209828275
1.0166666666666666,1.3940577507019043,-3.933234453201294,7.094870567321777,0.15924589784443055,-0.8483650786839275,-0.24674345624773864
1.025,1.5147162675857544,-3.9306862354278564,7.443657398223877,0.1743932424002583,-0.8774378761979411,-0.21204792672424083
1.0333333333333334,1.5392602682113647,-3.9058618545532227,7.70955753326416,0.17680754773122645,-0.8984129995224324,-0.16919400293836703
1.0416666666666667,1.589642882347107,-3.8444650173187256,7.855395317077637,0.16686686619882854,-0.8975247021408365,-0.13409401414669186
1.05,1.747126817703247,-3.7194855213165283,7.997424602508545,0.16335390704966182,-0.8935803608293473,-0.10057481119906043
1.0583333333333333,1.9438297748565674,-3.6167893409729004,8.056560516357422,0.1663163075777251,-0.8784504100443892,-0.06694898193928499
1.0666666666666667,2.1119351387023926,-3.569962978363037,8.08667278289795,0.17131299699395902,-0.858506329535922,-0.03785516625860587
1.075,2.2854979038238525,-3.591911792755127,8.082937240600586,0.18989768356875203,-0.8467807641514393,-0.00022285627511235077
1.0833333333333333,2.472867012023926,-3.602649450302124,8.19009780883789,0.21834237453967037,-0.8442646761325597,0.040549557073655484
1.0916666666666666,2.643082618713379,-3.576270818710327,8.337950706481934,0.24319769028289354,-0.8568007080157808,0.09145871091917833
1.1,2.6762914657592773,-3.6019344329833984,8.40548324584961,0.25058886112473133,-0.8739948749616594,0.15775324598771157
1.1083333333333334,2.6997427940368652,-3.623920202255249,8.596144676208496,0.2392382188874614,-0.8903197861277361,0.22187465825149696
1.1166666666666667,2.6171000003814697,-3.7096028327941895,8.744766235351562,0.22822191988029414,-0.9025431628989818,0.2757147041004361
1.125,2.4923460483551025,-3.8408100605010986,8.953487396240234,0.21999439994287376,-0.9184289188013044,0.32349184734597125
1.1333333333333333,2.446448802947998,-3.830709218978882,9.236143112182617,0.2190176523235736,-0.9460517582598242,0.3567013662707184
1.1416666666666666,2.4984424114227295,-3.844064950942993,9.383681297302246,0.2217413503941817,-0.9734923043417283,0.3827970825811597
1.15,2.701293706893921,-3.69108247756958,9.487964630126953,0.2344600751281821,-0.9855477022272172,0.4045691568618572
1.1583333333333334,3.1043860912323,-3.6505024433135986,9.625164985656738,0.2568293299938163,-0.9753606450044733,0.43094177534663936
1.1666666666666667,3.6495933532714844,-3.488055467605591,9.87277603149414,0.2917907428626449,-0.9407379529367892,0.463644627873999
1.175,4.1407904624938965,-3.3351807594299316,9.909900665283203,0.3283881688786228,-0.8815952038176093,0.5073104496076971
1.1833333333333333,4.415818691253662,-3.334045886993408,9.935042381286621,0.3512394559015613,-0.8075478073416917,0.5598661693761886
1.1916666666666667,4.553532123565674,-3.294797420501709,10.209875106811523,0.35584139826521827,-0.7369502697418631,0.6162052756577877
1.2,4.496302127838135,-3.2262184619903564,10.604043960571289,0.3408011960089957,-0.6944962861726919,0.6722980395385544
1.2083333333333333,4.291864395141602,-3.1735475063323975,10.933141708374023,0.3065174910585651,-0.6844666883493989,0.7257733155419367
1.2166666666666666,4.036527156829834,-3.170401096343994,11.14049243927002,0.26948006089623566,-0.7046772847039559,0.7675936665087508
1.225,3.9195427894592285,-3.196765422821045,11.222696304321289,0.2296641381238697,-0.7419726586626163,0.7940108263627645
1.2333333333333334,3.9559333324432373,-3.108079195022583,11.273409843444824,0.18532575170162893,-0.7774907720678124,0.8221472564375063
1.2416666666666667,4.014549732208252,-3.0875015258789062,11.25533390045166,0.14848647736915824,-0.7999354942608367,0.8578981301219751
1.25,4.071021556854248,-3.1502318382263184,11.1777982711792,0.13356606742771884,-0.8034502676884958,0.9000680209818621
1.2583333333333333,4.098115921020508,-3.1157045364379883,11.14022159576416,0.14870580532968308,-0.793330322125222,0.9429114252814301
1.2666666666666666,4.234323501586914,-2.828493595123291,11.11297607421875,0.18034212841949324,-0.7665124896852059,0.9975779332404048
1.275,4.440530776977539,-2.6965293884277344,11.075899124145508,0.2322523978082905,-0.7217089322443123,1.0568804720249896
1.2833333333333334,4.694757461547852,-2.521505355834961,10.998085975646973,0.29779297532746546,-0.6621041246760037,1.1170547965924116
1.2916666666666667,4.7756571769714355,-2.467940092086792,10.844419479370117,0.3676954611722972,-0.5972232620931117,1.1806044781044276
1.3,4.668217658996582,-2.4132492542266846,10.790152549743652,0.42636666433096493,-0.5450739407069662,1.235673589441195
1.3083333333333333,4.403491020202637,-2.4343972206115723,10.86323070526123,0.4640201668772138,-0.5095945762956308,1.2798450455973582
1.3166666666666667,4.136718273162842,-2.4866724014282227,11.106176376342773,0.4963476801384404,-0.4928357696089529,1.3020936259760982
1.325,3.907371759414673,-2.2766146659851074,11.133338928222656,0.5159712492097165,-0.48384963159026667,1.311915230918256
1.3333333333333333,3.7764382362365723,-2.0173697471618652,11.090232849121094,0.5189226974877968,-0.4739549561656999,1.3228279329590191
1.3416666666666666,3.6777913570404053,-1.84854257106781,11.198205947875977,0.5080311342881861,-0.4674825426104258,1.3388456484933553
1.35,3.648968458175659,-1.5410798788070679,11.214335441589355,0.4860556943687474,-0.458128855071795,1.3626748149790573
1.3583333333333334,3.6514925956726074,-1.1881179809570312,11.114404678344727,0.4562242288391976,-0.4542891427016324,1.395114647059258
1.3666666666666667,3.7759995460510254,-0.9829210042953491,11.033476829528809,0.425382426571099,-0.4507145813075008,1.4307364240098852
1.375,4.169245719909668,-0.7137409448623657,11.068131446838379,0.3934564181337154,-0.4489291981127117,1.4651655042663208
1.3833333333333333,4.425050735473633,-0.6967059969902039,10.722000122070312,0.3614821399015742,-0.42918631942459995,1.4982562129169366
1.3916666666666666,4.56952428817749,-0.8387673497200012,10.42016315460205,0.350386711720518,-0.38443918770930247,1.5160538521658273
1.4,4.412038326263428,-1.0481832027435303,10.212822914123535,0.3531787365178434,-0.334898399321376,1.5105335187002566
1.4083333333333334,3.996493339538574,-1.0573804378509521,10.331120491027832,0.3594329373112991,-0.2991490236650202,1.4894440791859735
1.4166666666666667,3.574335813522339,-0.9182679653167725,10.632840156555176,0.3584144446419119,-0.2959538295681704,1.4612197647952592
1.425,3.3436264991760254,-0.5055547952651978,10.922365188598633,0.3371897165442529,-0.3052066831700281,1.445179545549712
1.4333333333333333,3.2000577449798584,-0.2587868571281433,11.162039756774902,0.282597544069205,-0.332008603222531,1.4441375837732184
1.4416666666666667,3.2498886585235596,-0.18565736711025238,11.095869064331055,0.22410790191785337,-0.3600318489509443,1.4496703009378582
1.45,3.4470272064208984,-0.1385693997144699,11.049297332763672,0.17559501048691337,-0.37423731665299503,1.4666948245222986
1.4583333333333333,3.633671998977661,0.011609869077801704,11.053248405456543,0.13732882276475658,-0.3834851102487816,1.4925771550503972
1.4666666666666666,3.875741481781006,0.22661451995372772,10.830041885375977,0.1206322508238025,-0.3932981597859374,1.5229292019940304
1.475,4.059264183044434,0.28185003995895386,10.683695793151855,0.11379541696286471,-0.38828356061137276,1.548648813379525
1.4833333333333334,4.229457855224609,0.22871890664100647,10.57027530670166,0.1112380665918457,-0.3742561252281938,1.572152674738074
1.4916666666666667,4.264753818511963,0.0627574622631073,10.453195571899414,0.11476869415036937,-0.3467861179267308,1.58700938519519
1.5,4.279851913452148,-0.07746598869562149,10.436102867126465,0.13397960641073772,-0.31264359380358797,1.5940792789410232
1.5083333333333333,4.255773067474365,-0.10163448750972748,10.537660598754883,0.1570356405872329,-0.2816491924050278,1.5930722045748098
1.5166666666666666,4.238012313842773,-0.10921178758144379,10.629603385925293,0.165094249532515,-0.24591060255108682,1.5929283938759458
1.525,4.2198967933654785,-0.07169681042432785,10.688680648803711,0.16996468846832233,-0.2157372037823276,1.5928588853714944
1.5333333333333334,4.186709880828857,-0.055168312042951584,10.766142845153809,0.17395017561865317,-0.18665082414675468,1.5929061564808433
1.5416666666666667,4.144083499908447,0.10290779173374176,10.89862060546875,0.17578514354398822,-0.16314173633456658,1.6042139384693197
1.55,4.113667011260986,0.14645583927631378,10.983119010925293,0.17802850722248692,-0.1465202156020823,1.6234090715002294
1.5583333333333333,4.121256351470947,0.18931598961353302,10.988025665283203,0.19484723503369156,-0.1313916296871828,1.6411096385273867
1.5666666666666667,4.230572700500488,0.2943672239780426,10.935381889343262,0.21674725756001062,-0.11541723213245252,1.658201007455188
1.575,4.3438262939453125,0.507546067237854,10.775224685668945,0.24247292763698527,-0.0953598257972241,1.6762603022811788
1.5833333333333333,4.440989017486572,0.6584547162055969,10.468548774719238,0.27107048405447415,-0.05775455559503013,1.6907949034044498
1.5916666666666666,4.28772497177124,1.1434179544448853,11.16801929473877,0.28183205170337533,-0.025071154546601068,1.694019725168427
1.6,4.08176326751709,1.2951174974441528,11.365629196166992,0.24863406759509954,-0.005556688735342232,1.6893462769295013
1.6083333333333334,3.9119770526885986,1.1785727739334106,11.457433700561523,0.2284885688844383,0.010438544934025996,1.6781014787008053
1.6166666666666667,3.7823410034179688,1.07710862159729,11.59625244140625,0.2052187161619234,0.013179889567747774,1.6573944691190576
1.625,3.7904555797576904,0.9480913877487183,11.497481346130371,0.17849992002494453,0.01270913839437344,1.637355646654811
1.6333333333333333,3.8107807636260986,0.6918488144874573,11.409724235534668,0.15755082910010873,0.019741773892378207,1.6209187495648965
1.6416666666666666,3.782832145690918,0.44733521342277527,11.16808032989502,0.16356865770206308,0.0387126000998813,1.6079175965972932
1.65,3.7790350914001465,0.45418933033943176,10.917500495910645,0.2056699555191237,0.06218595578038111,1.5985635095844988
1.6583333333333334,3.8220877647399902,0.9005175828933716,10.904741287231445,0.26530815246959927,0.09123477236101629,1.6020262847918743
1.6666666666666667,3.8286123275756836,1.4841246604919434,11.045604705810547,0.318341560113867,0.1315623799249489,1.6091474443886915
1.675,3.8257884979248047,2.1895713806152344,10.970643997192383,0.3511882233400909,0.1761518108918217,1.6225452752006624
1.6833333333333333,3.809680223464966,2.834200859069824,10.837723731994629,0.3797042870282234,0.2235684786390578,1.6411497191017923
1.6916666666666667,3.609539747238159,3.2644143104553223,10.681767463684082,0.3947022448916545,0.2655247839795204,1.6589401678157398
1.7,3.373577117919922,3.432469606399536,10.618956565856934,0.39273749779744854,0.2915045862035159,1.6792418442795771
1.7083333333333333,3.20530366897583,3.193213939666748,10.717218399047852,0.38917089259707355,0.29704146455735875,1.6902271174600452
1.7166666666666666,3.0873985290527344,2.9332656860351562,10.833094596862793,0.39458426685536396,0.2933416014339389,1.6826012888366575
1.725,3.052838087081909,2.9871652126312256,10.734992980957031,0.4129730612872249,0.29730252092321374,1.6725525162535162
1.7333333333333334,2.9713211059570312,3.037224292755127,10.629698753356934,0.4340495178911937,0.3012071145554334,1.6570318797366435
1.7416666666666667,2.8201723098754883,3.3587865829467773,10.73291301727295,0.45132797388557333,0.29157229707423116,1.6379712363407828
1.75,2.7464077472686768,3.9022560119628906,10.825092315673828,0.4739223657318601,0.28025346296723086,1.6168262699177718
1.7583333333333333,2.8370165824890137,4.525286674499512,10.766899108886719,0.47359146796641777,0.271340012601547,1.5956160560480537
1.7666666666666666,2.936283588409424,5.122709274291992,10.791394233703613,0.45028850882260174,0.27514300663818014,1.5718745075622151
1.775,2.996141195297241,5.610439300537109,10.699437141418457,0.39903827062046704,0.2830276445852528,1.5470760835977788
1.7833333333333334,3.0630369186401367,5.779233455657959,10.499434471130371,0.33099127568612075,0.29213225998293396,1.522719078584023
1.7916666666666667,3.025597333908081,5.818214416503906,10.278956413269043,0.2577661301967653,0.3070481924847906,1.4979878994371114
1.8,2.8260550498962402,5.688154220581055,10.274100303649902,0.19736305673646218,0.31486899778948546,1.4735378169432574
1.8083333333333333,2.6294026374816895,5.485730171203613,10.254751205444336,0.15266454435581542,0.3012313826108668,1.4406999754381442
1.8166666666666667,2.481161594390869,5.3377180099487305,10.207765579223633,0.13117767798310856,0.2799461008879221,1.4042386369538695
1.825,2.3233940601348877,5.39680290222168,10.288517951965332,0.12161154509089507,0.2453452300964198,1.3666389302616402
1.8333333333333333,2.1994171142578125,5.512339115142822,10.444579124450684,0.1098490200239092,0.20464302395803233,1.3288366901685105
1.8416666666666666,2.217485189437866,5.582755088806152,10.525186538696289,0.09366917623583615,0.16110696474844835,1.287580596457657
1.85,2.3800151348114014,5.533284664154053,10.464441299438477,0.07711783812045382,0.13161202291214366,1.2408402551140032
1.8583333333333334,2.6471922397613525,5.527837753295898,10.145967483520508,0.06920673084885931,0.12031131494531273,1.184518525958517
1.8666666666666667,2.823503255844116,5.447067737579346,9.877584457397461,0.05788549573568876,0.1253446644384273,1.1255702541779402
1.875,2.8397507667541504,5.311208724975586,9.887171745300293,0.04058670817086209,0.13123946332039838,1.067553289830564
1.8833333333333333,2.700653076171875,5.254034042358398,9.916325569152832,0.025937630652015164,0.12758656337832644,1.0064362728162808
1.8916666666666666,2.5582525730133057,5.161483287811279,9.841242790222168,0.01568801307049237,0.12355809114352603,0.9437110393987264
1.9,2.4171783924102783,5.126940727233887,9.72219467163086,0.014867220580746143,0.11033242537365061,0.881099190064582
1.9083333333333334,2.2968013286590576,5.135897159576416,9.594977378845215,0.024503903315008794,0.08676327495650281,0.8161174602554033
1.9166666666666667,2.230201482772827,5.0924973487854,9.590867042541504,0.03956154927637131,0.05971157952207486,0.746647238745005
1.925,2.2196848392486572,5.055016040802002,9.61224365234375,0.05302678303105616,0.029090203768450708,0.6769603025009017
1.9333333333333333,2.2824747562408447,4.9867658615112305,9.580320358276367,0.0672184688744658,-0.0006024041127397651,0.6062519773997256
1.9416666666666667,2.3165557384490967,5.0414958000183105,9.626169204711914,0.07416387648409475,-0.02292332136923597,0.5346134434192985
1.95,2.3957173824310303,5.139118194580078,9.434810638427734,0.07250172274637064,-0.04594922853589963,0.4685960435517016
1.9583333333333333,2.5091514587402344,5.1530280113220215,9.276938438415527,0.07002547395292293,-0.0629841634157267,0.41074908875041327
1.9666666666666666,2.5690183639526367,5.248778820037842,9.200140953063965,0.06004143699021639,-0.07912679368875511,0.3523277233915086
1.975,2.604426145553589,5.293229103088379,9.133346557617188,0.038642800312186004,-0.08772942818809153,0.29628782325837993
1.9833333333333334,2.5806572437286377,5.189362049102783,9.104656219482422,0.014562296958310478,-0.09567353785125701,0.2384879065398452
1.9916666666666667,2.4643754959106445,5.0346198081970215,9.179475784301758,0.003722608443679117,-0.10860990942534418,0.1770878953702277
2.0,2.3096115589141846,4.915218830108643,9.276009559631348,0.0015007560327666262,-0.12599310255196952,0.11731246239982901
2.0083333333333333,2.182023525238037,4.839195251464844,9.282176971435547,0.02437734282598658,-0.14908204341268402,0.057167769660723206
2.0166666666666666,2.1744329929351807,4.921265602111816,9.269586563110352,0.06815318848281317,-0.18115001498092556,0.010030075319753988
2.025,2.205197334289551,4.961518287658691,9.275650024414062,0.11516929183496614,-0.2192366973232326,-0.03080439317716144
2.033333333333333,2.2630507946014404,5.060894966125488,9.342580795288086,0.15958846358439882,-0.25525886389899655,-0.06920399694755278
2.0416666666666665,2.361992359161377,5.149013996124268,9.249650001525879,0.19501253411360142,-0.2820043249363898,-0.11037222298719049
2.05,2.487882137298584,5.2711710929870605,9.190765380859375,0.21700170595741086,-0.30343601394026165,-0.14473761208168096
2.058333333333333,2.5996267795562744,5.262181282043457,9.220088005065918,0.22237756293384478,-0.3177565302014039,-0.18943535880351428
2.066666666666667,2.7130680084228516,5.213037490844727,9.353775978088379,0.21422599302176215,-0.3220254109812327,-0.23866482366001054
2.075,2.802922010421753,4.980304718017578,9.371600151062012,0.2039062437977051,-0.3184079061145236,-0.29212340497230943
2.0833333333333335,2.7621958255767822,4.7529401779174805,9.431171417236328,0.19917552095058602,-0.305492140749371,-0.35432908895070314
2.091666666666667,2.6566033363342285,4.579658031463623,9.498332977294922,0.20717605633934758,-0.2983612606145748,-0.4139964808046287
2.1,2.4884376525878906,4.501473903656006,9.591851234436035,0.22882239612707977,-0.30139230411973483,-0.47186264365527913
2.1083333333333334,2.3308193683624268,4.573341369628906,9.660133361816406,0.25544669997963126,-0.3067918632298705,-0.5214185787719054
2.1166666666666667,2.311826705932617,4.746270656585693,9.746319770812988,0.27925860585251816,-0.3252213041578687,-0.5656627392258279
2.125,2.375732660293579,4.85484504699707,9.826786994934082,0.29384287493011907,-0.3444531222327942,-0.6036766340465917
2.1333333333333333,2.470322847366333,4.876938819885254,9.845269203186035,0.3151825517183286,-0.361527014165942,-0.6376241481989134
2.1416666666666666,2.6743361949920654,4.98909330368042,9.843262672424316,0.34023107979863704,-0.36878372866224446,-0.6634810455386019
2.15,2.8372349739074707,4.922114849090576,9.874483108520508,0.35791027495804634,-0.36773404371858975,-0.6901098601202497
2.158333333333333,2.9438178539276123,4.799164772033691,9.926338195800781,0.369143887910164,-0.3513880270008741,-0.7233081604789049
2.1666666666666665,2.9789395332336426,4.594192981719971,10.152379989624023,0.37791068132356864,-0.3337451174113172,-0.762417346876991
2.175,3.0419280529022217,4.457160472869873,10.320441246032715,0.3778177702910385,-0.31387673725683557,-0.8082199892008278
2.183333333333333,3.058701992034912,4.361410140991211,10.302033424377441,0.3767435176863278,-0.28382003487809226,-0.8530645593225086
2.191666666666667,3.063995838165283,4.338529586791992,10.416611671447754,0.35879301299086663,-0.2586495839541286,-0.8976507362394244
2.2,2.9352333545684814,4.375403881072998,10.504511833190918,0.3274161483702575,-0.23318095885661705,-0.940202857294765
2.2083333333333335,2.78737211227417,4.342076301574707,10.492547988891602,0.2996277934499892,-0.22775330339698105,-0.9762247741991769
2.216666666666667,2.640383005142212,4.19899320602417,10.53102970123291,0.27197439421796066,-0.23855508477834245,-1.0097214151789482
2.225,2.592698097229004,3.9234700202941895,10.564337730407715,0.2620091450245068,-0.25913301427100527,-1.0389584631531923
2.2333333333333334,2.690347194671631,3.6948659420013428,10.545866012573242,0.2712793424629636,-0.2799899764668812,-1.071805492564066
2.2416666666666667,2.905470132827759,3.552645444869995,10.508280754089355,0.30316064308354745,-0.285895169999482,-1.103823945980789
2.25,3.1771414279937744,3.3590426445007324,10.41685676574707,0.3397784755713781,-0.280069205509311,-1.1381458340033486
2.2583333333333333,3.4842894077301025,3.1882970333099365,10.278717994689941,0.37533374007378073,-0.25741256227254367,-1.1732480282253017
2.2666666666666666,3.6070666313171387,3.2284128665924072,10.356324195861816,0.41121940299892135,-0.23428781853992442,-1.2022590404020252
2.275,3.6284122467041016,3.2752532958984375,10.481733322143555,0.43356731928632125,-0.21536181458192413,-1.2305561922485533
2.283333333333333,3.6216671466827393,3.4108171463012695,10.476309776306152,0.4337665570253728,-0.19949205429089878,-1.2545643231595085
2.2916666666666665,3.5569162368774414,3.4689910411834717,10.543299674987793,0.4135340561708501,-0.19497301946092738,-1.2708006842193402
2.3,3.4256954193115234,3.3424205780029297,10.534929275512695,0.3788393588851929,-0.1993961638468991,-1.2819275044117457
2.308333333333333,3.3294219970703125,3.20058274269104,10.53162670135498,0.35366469683775564,-0.22081262289828701,-1.290940174172792
2.316666666666667,3.2722864151000977,2.994605779647827,10.542537689208984,0.34084064408264253,-0.2569742226018734,-1.299007954379078
2.325,3.4889566898345947,2.8901193141937256,10.743677139282227,0.330840474189395,-0.29101523035321386,-1.2992345893878436
2.3333333333333335,3.8097872734069824,2.725374698638916,10.915336608886719,0.3238552689662262,-0.3076730033660368,-1.3023555478693076
2.341666666666667,4.214747428894043,2.5777957439422607,11.032755851745605,0.31736497894213495,-0.3000869557114325,-1.3050831574577666
2.35,4.625696659088135,2.4294278621673584,11.045673370361328,0.3079468429051242,-0.2719103784832579,-1.3180199950850446
2.3583333333333334,4.930557727813721,2.318075656890869,10.992753028869629,0.2912113055884709,-0.22615963451116403,-1.3304512315793708
2.3666666666666667,5.027495861053467,2.311647653579712,10.796530723571777,0.2594717184273929,-0.16241490973881353,-1.336718848046818
2.375,4.867323398590088,2.3131532669067383,10.567082405090332,0.20574372508131888,-0.10299234561285033,-1.338802505283696
2.3833333333333333,4.483919620513916,2.1266188621520996,10.592351913452148,0.15148862557649093,-0.056707816773331296,-1.3330343646786933
2.3916666666666666,4.117326259613037,1.6296800374984741,10.691643714904785,0.10969210157905468,-0.04599949986266408,-1.328268238433833
2.4,3.8896737098693848,1.019737720489502,10.560515403747559,0.09340453292488791,-0.05523922907377471,-1.3194306715144597
2.408333333333333,3.7225637435913086,0.4742307662963867,10.423250198364258,0.10471591850321436,-0.07907039293029428,-1.3122322802460298
2.4166666666666665,3.7581942081451416,0.023781120777130127,10.358821868896484,0.12898429018694088,-0.10565495742595472,-1.3081957269817968
2.425,3.89953875541687,-0.18335355818271637,10.264408111572266,0.1576727186542503,-0.12501825243494605,-1.3095153233019312
2.433333333333333,3.951174020767212,-0.31805190443992615,10.197737693786621,0.18170639926691357,-0.13727249690770144,-1.3176953557481639
2.441666666666667,3.9862656593322754,-0.36417439579963684,10.121821403503418,0.19873343620963288,-0.14132775055621394,-1.3308167504389843
2.45,4.0724687576293945,-0.36400488018989563,10.166874885559082,0.19573413425571518,-0.14167823920042516,-1.3406858928065999
2.4583333333333335,4.096512794494629,-0.31959497928619385,10.166848182678223,0.17306171178948912,-0.13956322324171147,-1.3370163231405798
2.466666666666667,4.111441135406494,-0.339303195476532,10.02989673614502,0.14753486333264568,-0.1349299304785973,-1.3265623505975828
2.475,4.109806060791016,-0.4622707962989807,9.938551902770996,0.12369475291933912,-0.11828157839813043,-1.3087118476010542
2.4833333333333334,4.091868877410889,-0.6803647875785828,9.770442962646484,0.10471189047206562,-0.10176020916738994,-1.2844641653500461
2.4916666666666667,4.043722629547119,-0.9622474312782288,9.746788024902344,0.09781023360571962,-0.09086546681922797,-1.2594261900455572
2.5,4.060516357421875,-1.1890759468078613,9.574361801147461,0.10273272901845962,-0.07573755501697939,-1.2297378028455719
2.5083333333333333,4.0108795166015625,-1.5200971364974976,9.187960624694824,0.12459188866680275,-0.04757309517176465,-1.2011864522729958
2.5166666666666666,3.779512643814087,-1.8688122034072876,9.077874183654785,0.14926972969050734,-0.01850291712635458,-1.176352741424116
2.525,3.453944206237793,-2.069505214691162,9.113725662231445,0.1598774165626724,-0.011914674789013471,-1.1546507748591148
2.533333333333333,3.1843090057373047,-2.073641300201416,9.093156814575195,0.1553026717316479,-0.021796363142076905,-1.1282027889154835
2.5416666666666665,2.890862464904785,-2.017820119857788,9.07370662689209,0.14258080113860983,-0.04717114926186603,-1.0938159197623258
2.55,2.6830878257751465,-1.954842448234558,9.079837799072266,0.1343138497722995,-0.09242687816634142,-1.0516666018218597
2.558333333333333,2.7070910930633545,-1.8623311519622803,9.169672966003418,0.13197169946211568,-0.14575951692621478,-1.0070744993715184
2.566666666666667,2.854257583618164,-1.83512282371521,9.270129203796387,0.11624028206734152,-0.1822448904393276,-0.9603073932589095
2.575,3.079709768295288,-2.024533748626709,9.381766319274902,0.09204972462171578,-0.2029197589956693,-0.9033793954812666
2.5833333333333335,3.291614532470703,-2.2050487995147705,9.441073417663574,0.06897747429089551,-0.2098452095418795,-0.8438661340754294
2.591666666666667,3.4500350952148438,-2.433593273162842,9.446171760559082,0.039123226250457895,-0.19464981157313263,-0.7949842117411886
2.6,3.564653158187866,-2.5267693996429443,9.505815505981445,-0.002056445920306326,-0.16296798171819574,-0.7508138208494612
2.6083333333333334,3.5059144496917725,-2.4727346897125244,9.370311737060547,-0.05309653288448102,-0.12338137376044246,-0.7073975705994172
2.6166666666666667,3.2669968605041504,-2.45497727394104,9.182125091552734,-0.09909741426196057,-0.08935612859380397,-0.6644548969702165
2.625,3.023108959197998,-2.541368007659912,9.036393165588379,-0.11996852450112751,-0.069972776652853,-0.6217379928224273
2.6333333333333333,2.7070696353912354,-2.7169628143310547,9.000041007995605,-0.11778912662306115,-0.07080248449046718,-0.58050307124224
2.6416666666666666,2.4597103595733643,-2.7846221923828125,9.227835655212402,-0.10230228728489715,-0.09089036737542021,-0.5341292141540948
2.65,2.337066411972046,-2.6732020378112793,9.29326343536377,-0.07843120930154003,-0.12370785234295095,-0.4873117742968833
2.658333333333333,2.3674583435058594,-2.5176734924316406,9.348383903503418,-0.05595427118170418,-0.15866915702086026,-0.4322803799790541
2.6666666666666665,2.5104684829711914,-2.34671688079834,9.412186622619629,-0.039826384002022874,-0.19110106619681796,-0.3773714577818548
2.675,2.75663161277771,-2.104375123977661,9.554900169372559,-0.03319032127835803,-0.2086080713469968,-0.3278178196416687
2.683333333333333,3.0331382751464844,-1.9219022989273071,9.552085876464844,-0.04227556009851425,-0.202241818050676,-0.28238369223367166
2.691666666666667,3.2066879272460938,-1.7942448854446411,9.44057559967041,-0.056404432790900835,-0.16762628322842146,-0.24337805286771913
2.7,3.23349666595459,-1.6967183351516724,9.43647289276123,-0.07462852319290793,-0.12085647234283035,-0.21178923391385326
2.7083333333333335,3.0660510063171387,-1.6105461120605469,9.394795417785645,-0.08917563285092385,-0.07343401222022332,-0.18799219180880036
2.716666666666667,2.897941827774048,-1.4535554647445679,9.460336685180664,-0.11091243689193465,-0.035960472784636606,-0.16575820888178536
2.725,2.8080363273620605,-1.1815491914749146,9.495946884155273,-0.13496946177602814,-0.00981794829714537,-0.1432515515486599
2.7333333333333334,2.811815023422241,-1.0079965591430664,9.565021514892578,-0.16549380691981094,0.012705686687929346,-0.10988803533387885
2.7416666666666667,2.7432587146759033,-0.9142829775810242,9.521912574768066,-0.18137490229022596,0.026514700209532505,-0.07502060708439484
2.75,2.6419317722320557,-0.7638236284255981,9.48364543914795,-0.18116749197557924,0.04045022948737394,-0.036356343358298474
2.7583333333333333,2.4568228721618652,-0.5830624103546143,9.453410148620605,-0.1811227675140227,0.04809125477373159,0.003579104892592903
2.7666666666666666,2.263505220413208,-0.45609280467033386,9.385324478149414,-0.1818992953536194,0.05045527629436768,0.03935226642658311
2.775,2.111633062362671,-0.42155319452285767,9.197341918945312,-0.18547951596506737,0.05141889536173162,0.06444645939720797
2.783333333333333,1.9307010173797607,-0.3966846764087677,9.050299644470215,-0.19356622125984982,0.05141396851371498,0.0747586102897799
2.7916666666666665,1.807045578956604,-0.3688298761844635,8.905488967895508,-0.2009980718873386,0.049054882163473944,0.07422752603414765
2.8,1.708124041557312,-0.26355603337287903,8.89864730834961,-0.21135831780472164,0.04923973883263906,0.06945323969725978
2.808333333333333,1.6128066778182983,-0.05956151708960533,9.085694313049316,-0.23163036660143205,0.040491812251082004,0.0622990527417362
2.816666666666667,1.5887959003448486,0.12187451124191284,9.314326286315918,-0.25546452651417795,0.020843388396694883,0.05811820608069125
2.825,1.7238999605178833,0.3519066870212555,9.349377632141113,-0.27754715866749236,0.0014819800968957548,0.06281628439851082
2.8333333333333335,1.8896162509918213,0.49480271339416504,9.221929550170898,-0.28168757521423854,-0.010215604020975438,0.06327294578524295
2.841666666666667,1.9991177320480347,0.6264060139656067,9.236067771911621,-0.2741068705265712,-0.007840859115762577,0.061075675599548664
2.85,2.0140268802642822,0.714286744594574,9.247078895568848,-0.26873728862345575,-0.008748375989991012,0.06485663613935061
2.8583333333333334,2.0051205158233643,0.8572530746459961,9.283401489257812,-0.25861266588351745,-0.014786494550500417,0.06829446501745266
2.8666666666666667,1.9960085153579712,1.0157549381256104,9.29897689819336,-0.24986746071969929,-0.017246181810919196,0.07611610672117733
2.875,2.010104179382324,1.102004885673523,9.300230026245117,-0.24405527808816949,-0.02216733524014114,0.0784617857198055
2.8833333333333333,2.064373731613159,1.1264498233795166,9.390604972839355,-0.2395378078653385,-0.01908267273150262,0.07330995052531765
2.8916666666666666,2.170631170272827,1.1504615545272827,9.372579574584961,-0.2375345780933809,-0.014063610681517432,0.06633771989008455
2.9,2.253993034362793,1.258810043334961,9.360208511352539,-0.23836300428472051,-0.0027527280869359167,0.05457710897013217
2.908333333333333,2.3803653717041016,1.3422273397445679,9.48634147644043,-0.2466021422623963,0.006079023570525991,0.050220123331302886
2.9166666666666665,2.4327049255371094,1.3691215515136719,9.509222030639648,-0.24415454741780218,0.018306812762773073,0.04429444010306527
2.925,2.489783763885498,1.5032501220703125,9.635916709899902,-0.24062506002512016,0.029631108430602612,0.04523995383620587
2.933333333333333,2.5497403144836426,1.592300295829773,9.68593692779541,-0.23723620418275115,0.03814679904272636,0.052070262952472975
2.941666666666667,2.5551021099090576,1.5844230651855469,9.541735649108887,-0.2255354394859199,0.049940042008410616,0.05680721926101851
2.95,2.4996957778930664,1.5885682106018066,9.47778034210205,-0.20822311141142585,0.06008299894797844,0.06238129864633842
2.9583333333333335,2.3588831424713135,1.7074146270751953,9.528508186340332,-0.19332374044259812,0.06606188298017959,0.07243507714009141
2.966666666666667,2.3099606037139893,1.7476845979690552,9.518391609191895,-0.1897750283557971,0.06572883804110838,0.08329264342391154
2.975,2.2933032512664795,1.6980695724487305,9.468828201293945,-0.18914156220100814,0.06768066464283824,0.08895143629903121
