Time (s),Acceleration x (m/s^2),Acceleration y (m/s^2),Acceleration z (m/s^2),Gyroscope x (rad/s),Gyroscope y (rad/s),Gyroscope z (rad/s)
0,0.002045918,0.018275531,9.769046783,0.006465499,0.000457111,-0.001774352
0.008333333,0.013004075,0.018797724,9.745242119,0.00603633,0.001487121,-0.001917856
0.016666667,0.023861883,0.026622882,9.774538994,0.00792468,-0.002060019,-0.001487791
0.025,0.007553498,0.021758942,9.741580009,0.006723002,-0.000658062,-0.000801565
0.033333333,0.035077542,0.020478589,9.756227493,0.007438287,-0.001716683,-0.000543616
0.041666667,0.005908248,0.026572812,9.7507267,0.007152173,-0.000401006,-0.002546859
0.05,-0.001366066,0.023482773,9.745242119,0.006064941,-0.000658509,-0.001173513
0.058333333,0.009656383,0.027631428,9.723254204,0.007953292,-0.001287512,-0.000629897
0.066666667,0.015264167,0.026479825,9.765368462,0.008268018,-0.000772507,-0.000257502
0.075,0.007996879,0.014312839,9.74707222,0.006408277,-0.001088126,-0.002260746
0.083333333,0.013575758,0.020328349,9.745232582,0.006751167,0.000542498,-0.002804809
0.091666667,-0.010264191,0.020893445,9.774539948,0.008439684,-0.000658509,-0.001831575
0.1,0.015421569,0.010607662,9.76539135,0.00709495,-0.000915564,-0.000315172
0.108333333,0.022817569,0.025785999,9.730577469,0.007037727,-0.000257949,-0.001431463
0.116666667,-0.011945248,0.008046948,9.737930298,0.006694391,-0.000888294,-0.002747139
0.125,0.002775162,0.021408439,9.7342453,0.00603633,0.000686002,-0.001317464
0.133333333,0.019198464,0.016408611,9.739747047,0.007266619,-0.000373736,-0.003605927
0.141666667,0.019226842,0.033496764,9.74888134,0.007609956,-0.00074479,-0.002232134
0.15,0.041257598,0.032295085,9.754374504,0.007667178,-0.001317464,-0.003519199
0.158333333,-0.008061254,0.031107714,9.778186798,0.008067737,-0.001030457,-0.001859739
0.166666667,0.013976821,0.018883485,9.732417107,0.006150775,-0.000858788,-0.001516403
0.175,0.008554722,0.017595999,9.75988102,0.006665779,-0.000657615,-0.000658062
0.183333333,0.010443151,0.032738563,9.728732109,0.007609956,2.93E-05,-0.000344231
0.191666667,0.025092173,0.016902167,9.741571426,0.007638567,-0.001515956,-0.001058174
0.2,0.012388822,0.017503014,9.736079216,0.008181735,0.000400336,-0.001346076
0.208333333,0.025178008,0.025428357,9.697609901,0.007609955,-0.00054451,-0.002031855
0.216666667,0.001423176,0.02431971,9.756204605,0.006237057,-0.001203019,-0.002145853
0.225,-0.013118695,0.015664712,9.756240845,0.007695342,0.000255938,-0.002776645
0.233333333,0.003333225,0.029112071,9.756198883,0.008668128,0.001371781,-0.002949654
0.241666667,0.019698661,0.033468094,9.747035027,0.006035435,0.001256889,-0.002490978
0.25,0.015936535,0.028489774,9.759860992,0.006380113,-0.001460969,-0.002974689
0.258333333,0.0270449,0.008769386,9.710463524,0.007553179,-0.000658509,-0.001859739
0.266666667,0.012445947,0.03147966,9.770840645,0.007581344,-0.000200727,-0.001660354
0.275,-0.027817406,0.017352797,9.739761353,0.007467792,-0.002172676,-0.000198938
0.283333333,0.019956507,0.019799052,9.734240532,0.007953739,-0.002259852,-0.001056833
0.291666667,0.007324511,0.035149071,9.758015633,0.00709495,-0.001203019,-0.002345686
0.3,-0.003540657,0.010085508,9.756256104,0.006236609,-0.001031798,-0.002575024
0.308333333,0.009341612,0.008662092,9.715956688,0.007696237,-0.001199443,0.000314502
0.316666667,0.024076521,0.042366277,9.761650085,0.007954186,-0.002774409,-0.000741213
0.325,0.00233898,0.02833241,9.750705719,0.006579945,-0.000285667,-0.001001845
0.333333333,0.015178333,0.025163701,9.734232903,0.006380113,-0.002174912,-0.001314335
0.341666667,0.013518874,0.016515914,9.732429504,0.007267066,-0.0017748,-0.001972844
0.35,0.004513444,0.018947881,9.737909317,0.007580897,-0.000371501,-0.001259795
0.358333333,-0.004599477,0.014091124,9.745261192,0.006951893,-0.0008874,-0.001602684
0.366666667,0.010092662,0.047587864,9.735999107,0.005721604,0.000597486,-0.002920148
0.375,0.015557433,0.018826284,9.756227493,0.007409228,0.000512993,-0.002491425
0.383333333,0.0008798,0.006552004,9.741621017,0.007153067,-0.002087289,-0.000484605
0.391666667,0.017524466,0.007138537,9.739783287,0.007610402,-0.001171278,-8.54E-05
0.4,0.004792651,0.031608388,9.754362106,0.00666578,-0.00080246,-0.002060466
0.408333333,-0.002446272,0.000987092,9.745311737,0.006494112,-0.000888741,-0.00208863
0.416666667,0.015922228,0.014377214,9.754410744,0.005035378,-0.001575861,-0.002487848
0.425,-0.00223884,0.009341612,9.774581909,0.005921437,-0.000373736,-0.002118136
0.433333333,0.00144502,0.002431977,9.756293297,0.006608557,0.000457559,-0.001232524
0.441666667,0.00870501,0.02120818,9.732415199,0.006809284,-0.000858341,-0.001173066
0.45,0.032588352,0.012560392,9.712302208,0.007552286,0.000198268,-0.002520036
0.458333333,0.010600513,0.009620573,9.74894619,0.005377821,0.001172396,-0.001233866
0.466666667,-0.00963511,0.008104161,9.719660759,0.006035882,0.000226879,-0.002147641
0.475,0.015979651,0.006880904,9.748952866,0.005980448,-0.003924676,-0.003742278
0.483333333,-0.002024255,0.034862958,9.759840012,0.005121212,-0.001230736,-0.001343393
0.491666667,-0.00558637,0.038947228,9.763494492,0.006609004,-0.000429618,-0.001545908
0.5,0.036572229,0.032209329,9.763500214,0.007124456,-0.002289804,-0.002028725
0.508333333,0.025778847,0.012589004,9.752593994,0.006751615,-0.000916905,-0.002117242
0.516666667,-0.021766102,0.025886139,9.74707222,0.006781566,-0.002056889,0.000230903
0.525,-0.021565726,0.002675134,9.756321907,0.007811128,-0.002402909,-0.001370664
0.533333333,0.022538608,0.038203333,9.770805359,0.006036777,-0.000886953,-0.001344735
0.541666667,0.01162337,0.022073673,9.739747047,0.008040467,-0.002399779,-8.32E-05
0.55,-0.000979939,0.013590402,9.745290756,0.00703728,0.000888964,-0.000433194
0.558333333,0.008082713,0.030578403,9.730563164,0.006609451,-0.00223124,-0.000941046
0.566666667,0.00276815,0.038525213,9.750669479,0.007180337,8.74E-05,-0.00051724
0.575,0.010092541,0.028074913,9.737893105,0.008010514,-0.000515005,-0.001689412
0.583333333,0.015643463,0.025220875,9.774525642,0.008010962,-0.002177147,-0.002715845
0.591666667,0.024977727,0.016623206,9.750762939,0.006922387,0.001201007,-0.001692541
0.6,-0.011737815,0.030027635,9.765368462,0.007181678,-0.001974185,-0.001514168
0.608333333,0.015857853,0.036036022,9.741520882,0.005035378,-0.002062701,-0.002114112
0.616666667,-0.002260524,0.018039461,9.726970673,0.007752565,0.000170998,-0.001633978
0.625,0.023354033,0.013247065,9.736135483,0.007867457,-0.001346523,-0.002459684
0.633333333,-0.002160158,0.021201026,9.739775658,0.008010962,-0.001743953,-0.001142667
0.641666667,0.014470201,0.009055499,9.741663933,0.007696683,-0.001857504,-0.000598604
0.65,0.018246902,0.031622719,9.734225273,0.005206153,-0.000488182,-0.001717577
0.658333333,0.00734597,0.008390285,9.765468597,0.006551781,3.60E-05,0.001800058
0.666666667,0.023797508,0.017975094,9.741614342,0.005492266,0.000458453,-0.000775636
0.675,0.021909159,0.040449329,9.752486229,0.006666674,-0.002260298,-0.001398828
0.683333333,-0.012631921,-0.001087232,9.767371178,0.005550383,-0.001690753,-0.002172229
0.691666667,0.031386673,0.017510159,9.72512722,0.006579945,-0.000168986,-0.000230679
0.7,-0.019863445,0.032645576,9.72875309,0.006093105,-0.000288796,-0.002147641
0.708333333,0.005822414,0.011358715,9.758137703,0.005721157,-2.24E-06,-0.001947809
0.716666667,0.011308402,0.002539219,9.734381676,0.005720263,0.000940375,-0.002379662
0.725,0.016709207,0.032380875,9.747044563,0.005808332,-0.001689412,-0.001600002
0.733333333,0.020492895,0.025321065,9.70862484,0.006007718,-0.001145796,-0.001773011
0.741666667,-0.010485776,0.017023725,9.781943321,0.007124008,-0.001060856,-0.002288463
0.75,-0.001251747,0.013776376,9.750826836,0.00798101,0.000256832,-0.001834705
0.758333333,0.028010322,0.03660829,9.781805038,0.006236609,-0.001317911,-0.001887009
0.766666667,0.002474884,0.016709041,9.741657257,0.006722108,0.00016608,-0.003178992
0.775,-0.006680755,0.020993594,9.756284714,0.006151222,-0.001603578,-0.001800281
0.783333333,0.008068085,0.03246681,9.750711441,0.007582238,-0.001375581,-0.00237385
0.791666667,0.022846181,0.016580289,9.743474007,0.006151669,-0.001110479,0.000515228
0.8,-0.013661974,0.007911059,9.749047279,0.008127195,-0.002596482,0.000605086
0.808333333,0.004842475,0.028775888,9.756241798,0.007036834,0.000430288,-0.000977257
0.816666667,0.02128683,0.018289816,9.73980999,0.00583605,0.000317184,-0.000289243
0.825,0.02125825,0.01685925,9.728838921,0.006894223,-0.000460464,-0.002233028
0.833333333,0.002975821,0.032194946,9.754397392,0.006378771,-8.85E-05,-0.002090866
0.841666667,0.008490247,0.027273849,9.759917259,0.006409619,-0.002203523,-0.001540991
0.85,0.021501562,0.005743748,9.745391846,0.007265725,0.000917129,-0.000892764
0.858333333,0.021387,0.026372531,9.7287817,0.005664381,-0.000488629,-0.001774799
0.866666667,0.015936535,0.02873297,9.741592407,0.009354803,-5.54E-05,-0.001347864
0.875,0.02878304,0.013011022,9.738030434,0.007866563,5.66E-05,-0.001691647
0.883333333,0.003125501,0.02456291,9.732479095,0.007038174,-0.001232971,-0.00231618
0.891666667,-0.000450462,0.030549752,9.721457481,0.007525015,-0.001948256,-0.00248606
0.9,-0.013054084,0.014942306,9.76368618,0.005664381,-0.00074479,-0.001430569
0.908333333,0.025414051,0.024426959,9.734304428,0.007038175,-0.001430122,-0.001285724
0.916666667,0.016379829,0.038053077,9.772670746,0.008466061,0.002029396,-0.002385027
0.925,0.001630848,0.00578665,9.77657032,0.007580897,-0.000142163,-0.001318805
0.933333333,-0.011222648,0.028210796,9.754454613,0.00852552,-0.001031351,-0.002145853
0.941666667,0.008976818,0.036186233,9.745225906,0.005950495,-0.000430065,-0.001489133
0.95,0.023711674,0.016773418,9.776484489,0.006751166,-0.000719308,-0.002575471
0.958333333,0.010951128,0.019076588,9.769161224,0.006123505,-0.002317074,-0.00113909
0.966666667,0.003783854,0.026715869,9.743466377,0.00709495,-0.000944622,-0.00165946
0.975,0.027702961,0.001702377,9.745462418,0.007008669,0.000402571,-0.000863259
0.983333333,0.005665052,0.024240986,9.748989105,0.007724847,-0.00010774,0.000196927
0.991666667,0.01298218,0.034083288,9.754402161,0.00632155,8.29E-05,-0.002034537
1,0.003826771,0.019777611,9.734375954,0.00637922,-0.000118916,-0.002491872
1.008333333,-0.005328868,0.038661115,9.745233536,0.006807496,0.001145573,-0.001123444
1.016666667,0.009255779,0.019090937,9.743537903,0.006979611,0.001352111,0.000563957
1.025,0.023761744,0.034212049,9.72693634,0.005979106,-0.000173009,-0.001547249
1.033333333,-0.001866892,0.040263355,9.743394852,0.0073225,0.001229171,-0.001752894
1.041666667,0.012732061,0.011609064,9.745433807,0.007467792,-0.001488685,-0.001714
1.05,5.02E-05,0.019641692,9.761872292,0.006495006,-0.001000057,-0.000943281
1.058333333,0.016565984,0.019870598,9.719747543,0.005350104,-0.001868234,-0.003314449
1.066666667,0.002124394,0.013239913,9.75644207,0.007267512,-0.001661248,-0.002028278
1.075,0.015035068,0.020965058,9.728902817,0.007182574,-0.002718528,-0.001623696
1.083333333,0.039040215,0.034505315,9.741600037,0.008266228,0.000796872,-0.002839679
1.091666667,0.004213024,0.026050653,9.752672195,0.005950943,-0.001379605,-0.002772621
1.1,-0.003004194,0.018990798,9.727108002,0.006666226,-0.001344288,-0.001228054
1.108333333,-0.001037162,0.01059336,9.754653931,0.006896011,-0.001889692,-0.001826657
1.116666667,0.01008555,0.020342674,9.756393433,0.006724791,-0.002169547,-0.000337972
1.125,0.030428194,0.015543127,9.769230843,0.007779388,0.000967199,-0.003011794
1.133333333,0.019312676,0.038024515,9.756248474,0.007297466,-0.001995644,0.000118693
1.141666667,-0.006115681,0.011029684,9.747336388,0.007095844,-0.001718471,-0.002027831
1.15,-0.007818057,0.031894527,9.765482903,0.007640355,-0.001305841,0.000831295
1.158333333,0.019770378,0.006795222,9.749197006,0.006524511,-0.001650519,0.000690026
1.166666667,0.027195109,0.021930616,9.741735458,0.004948651,-3.13E-05,-0.001662142
1.175,-0.000192976,0.002353267,9.767565727,0.007381958,-0.000913776,-0.001144008
1.183333333,0.001695224,0.008368826,9.758358955,0.007898751,-0.00398011,-0.002390391
1.191666667,0.014763468,0.034526773,9.741649628,0.007038175,-0.001234313,-0.002402014
1.2,-0.005214202,0.018776147,9.763774872,0.007067681,-0.002233028,-0.001739482
1.208333333,0.000429171,0.019076632,9.730820656,0.006552675,-0.001546355,-0.001742164
1.216666667,0.01152323,0.030721461,9.743523598,0.006522723,0.000409277,0.000681085
1.225,0.004205872,0.01482069,9.750998497,0.006923729,-0.001150267,-0.00280302
1.233333333,0.017080989,0.017109601,9.736321449,0.006264774,-0.001035374,-0.00257413
1.241666667,0.035506714,0.023468478,9.771034241,0.007325182,-0.001658118,-0.00122716
1.25,0.013661812,0.029505506,9.771011353,0.006753402,-0.001914727,-0.000967869
1.258333333,0.002825229,0.026272425,9.760074615,0.005865556,-0.001545909,-0.00136977
1.266666667,0.017581688,0.024763143,9.739926338,0.005437279,-0.001684942,-0.00048237
1.275,0.013962487,0.056056827,9.710350037,0.00640783,-0.000514558,-0.001203466
1.283333333,0.00122294,0.040091671,9.712343216,0.007122221,0.000314055,-0.001550379
1.291666667,0.003125553,0.020979289,9.761962891,0.007666283,-0.000114893,-0.001749317
1.3,0.001294665,0.028933249,9.761892319,0.007097633,-0.00343113,-0.000961163
1.308333333,0.012524628,0.0386182,9.754460335,0.007666283,0.000399442,-0.001751553
1.316666667,0.021644503,0.031751469,9.734382629,0.007809788,-0.001149373,-0.002660411
1.325,0.001645154,0.025256688,9.760118484,0.006923282,-0.000860576,-0.001888798
1.333333333,0.012646226,0.042344831,9.761763573,0.007665837,0.000401677,-0.00135144
1.341666667,0.021809042,0.013440195,9.736400604,0.006435994,0.000577369,-0.000206985
1.35,-0.000221738,0.023103682,9.739997864,0.006635827,0.000282761,-0.001979996
1.358333333,-0.009413142,0.042180315,9.765468597,0.007497745,-0.00167913,0.000289467
1.366666667,0.014570341,0.022760347,9.771126747,0.007923786,-0.000722884,-0.003177204
1.375,0.018296972,0.019706082,9.767485619,0.006836107,0.000602851,-0.000923164
1.383333333,-0.00194532,0.028976096,9.727144241,0.007009115,-0.002015761,-0.00405745
1.391666667,0.014756315,0.00777514,9.743817329,0.007610402,-0.000306231,-3.13E-06
1.4,0.025721623,0.028582761,9.745433807,0.007982797,-0.002470413,-0.003654656
1.408333333,0.011272625,0.036629718,9.756361961,0.007122668,-0.000403242,-0.002005031
1.416666667,0.022323886,0.020678854,9.749187469,0.005349209,0.000517016,-0.000721543
1.425,0.005765191,0.030199302,9.745454788,0.006324232,-0.002697069,-0.00279408
1.433333333,-0.001280359,0.012410183,9.749310493,0.007266619,-0.000712155,-0.001031351
1.441666667,-0.006759693,0.027660083,9.751004219,0.00695234,-0.001147137,-0.002059125
1.45,0.017166823,0.017295575,9.751084328,0.007124008,-0.001057727,-0.001343841
1.458333333,0.020871995,0.023132294,9.727215767,0.006238844,-0.002606764,-0.001936185
1.466666667,0.022932015,0.029376727,9.750955582,0.007036387,0.001207266,-0.000440347
1.475,0.019176772,0.028196506,9.758301735,0.007066339,-0.001120314,-0.00231618
1.483333333,0.010149607,0.021494286,9.765704155,0.007723059,0.000112434,-0.002008608
1.491666667,0.011945038,0.023797568,9.749209404,0.006495452,-0.001947809,-0.001796705
1.5,-0.002575024,0.033289332,9.734490395,0.007151726,6.04E-06,-0.000376865
1.508333333,0.001173066,-0.000908411,9.734854698,0.008352958,-0.001068456,-0.00354781
1.516666667,0.013976716,0.036515247,9.743597031,0.008328369,-0.002941607,-0.000819448
1.525,0.006959716,0.032166336,9.787599564,0.006809731,-0.001661695,-0.001912939
1.533333333,0.003469129,0.012281432,9.762192726,0.007238455,-0.000599945,-0.001375134
1.541666667,0.027266636,0.027559904,9.760175705,0.006607663,0.000719978,-0.000553004
1.55,0.02171603,0.035506714,9.769252777,0.006548204,0.001774576,-0.001244595
1.558333333,0.012367265,0.037488051,9.736278534,0.005833815,0.000597039,-0.001924562
1.566666667,0.012438598,0.001623718,9.762320518,0.006494112,-0.000774295,-0.001688518
1.575,0.003311801,0.012968106,9.749397278,0.008296628,9.32E-05,-0.000464041
1.583333333,0.016122509,0.026808856,9.776699066,0.006923282,-0.000514558,-0.001432357
1.591666667,0.001537765,0.021866255,9.778610229,0.00629562,-0.00075999,0.000858118
1.6,0.001466187,0.056929495,9.758071899,0.006609898,-0.001258006,-0.001227607
1.608333333,0.030979082,0.026630016,9.776685715,0.007268408,-0.00136977,-0.000912882
1.616666667,0.014613258,0.01600091,9.760361671,0.007149044,0.0013083,-0.002845491
1.625,-0.002067172,0.038131807,9.727172852,0.00549316,-0.00033976,-0.000545851
1.633333333,0.012667685,0.020492895,9.74383831,0.005378715,-0.000132775,0.000597486
1.641666667,0.010865169,0.024777448,9.76028347,0.007122668,0.00069092,-0.000724225
1.65,0.018182527,-0.009735019,9.73320961,0.005893272,-0.000657615,-0.001115844
1.658333333,-0.000136085,0.021887723,9.738358498,0.006951893,-0.001001398,-0.001458286
1.666666667,-0.009220014,0.024240986,9.736521721,0.007780729,0.000464264,-0.000494887
1.675,0.027402541,0.023461325,9.76396656,0.006293831,-0.000600392,-0.001231183
1.683333333,0.00719576,0.043496437,9.716135979,0.006894224,-0.000665662,-0.002661752
1.691666667,0.014670688,0.024369702,9.752988815,0.007238901,-0.00131657,-0.001599107
1.7,0.02387619,0.043231782,9.747250557,0.007668519,-0.001315676,-0.001542779
1.708333333,-0.005228728,0.025821762,9.776813507,0.006552228,-0.001173513,-0.001456498
1.716666667,-0.012481711,0.033589751,9.771234512,0.007180784,-0.000978598,-0.002516907
1.725,0.026086418,0.014041031,9.764109612,0.006464606,0.000318525,-0.00072199
1.733333333,0.000422018,0.016287023,9.760455132,0.005495395,-0.002225876,-0.000219056
1.741666667,0.011487465,0.04775238,9.749074936,0.007149938,0.000337301,-0.00249679
1.75,0.020686021,0.022767499,9.753029823,0.006467288,-0.002465943,-0.002220958
1.758333333,-0.006552004,0.015857853,9.74949646,0.008124065,-0.000519922,-0.002549095
1.766666667,0.011716556,0.042101618,9.741823196,0.006837447,-0.00074479,-0.001631295
1.775,0.028260883,0.025907597,9.716371536,0.007094951,-0.001204807,-0.001914727
1.783333333,-0.000822577,0.008619176,9.758752823,0.006951893,3.91E-05,0.000251467
1.791666667,0.011945248,0.020070877,9.747615814,0.007753907,-0.001143114,-0.001400616
1.8,0.019327011,0.020464271,9.727457047,0.005638899,-0.001936185,0.000293937
1.808333333,-0.018962186,0.017073836,9.722065926,0.007900092,-0.003023864,-0.000301314
1.816666667,0.008740774,0.02523523,9.731092453,0.00812496,-0.00068712,-0.001804752
1.825,0.021587461,0.046357527,9.752774239,0.006410065,-0.001832469,-0.00156692
1.833333333,-0.016616123,0.010128443,9.751476288,0.007784306,-0.00214183,-0.000993351
1.841666667,0.005486121,0.031007618,9.754845619,0.005954071,-0.002545071,-0.001018386
1.85,-0.001666612,0.036822837,9.743795395,0.006323785,-0.001837834,-0.002339427
1.858333333,0.000386254,0.022982085,9.765954971,0.006153457,-0.001999667,-0.00076446
1.866666667,0.040878497,-0.000393406,9.751564026,0.00649657,-0.002698857,-0.002791844
1.875,0.009906243,0.016422955,9.744059563,0.007264831,-0.000471194,-0.003436047
1.883333333,0.006315632,0.013454515,9.753279686,0.006292043,-0.000353619,-0.002921489
1.891666667,0.008089866,0.043324769,9.756534576,0.006577711,0.000915788,-0.001299135
1.9,0.002496342,0.030428194,9.712780952,0.006836106,-0.000144398,-0.001664377
1.908333333,-0.004741955,0.029755777,9.758588791,0.005234764,-0.000750601,-0.002030961
1.916666667,0.006337437,0.013554637,9.745985985,0.007181678,-0.000677285,-0.000145292
1.925,-0.02299639,0.030177845,9.720162392,0.006493665,-0.000314725,-0.001405534
1.933333333,0.021036675,0.029634284,9.765885353,0.005089025,0.001602908,-0.000902152
1.941666667,0.011816497,0.009878076,9.766183853,0.006242421,-0.004230013,-0.000634368
1.95,-0.002574796,0.028303741,9.740327835,0.006208892,-0.0017216,-0.002053313
1.958333333,0.015886465,0.034583997,9.756691933,0.007642143,-0.002307239,-7.69E-05
1.966666667,0.025278147,0.005629288,9.735105515,0.007183468,-0.001478404,-0.000167645
1.975,0.008833595,0.037394997,9.742020607,0.006232138,0.002373179,-0.001510144
1.983333333,0.025120992,0.03044254,9.729284286,0.007491933,0.001259124,-0.001560214
1.991666667,-0.020707481,0.029491171,9.758681297,0.006923282,-0.000396536,-0.00091914
2,-0.020635951,0.028532691,9.780675888,0.005464102,-0.000426488,-0.000717073
2.008333333,-0.004148649,0.032538284,9.7695961,0.007238007,-0.000596368,-0.000889188
2.016666667,0.036193386,0.018268362,9.745942116,0.006527194,-0.003953734,-0.002094889
2.025,-0.007453262,0.024126539,9.744095802,0.008440131,-0.001404193,-0.002086395
2.033333333,-0.011022531,0.032094806,9.742178917,0.006610346,-0.002353733,-0.002420791
2.041666667,-0.016344499,0.036221985,9.738458633,0.008035996,0.000186645,-0.00352814
2.05,0.025878761,0.011780818,9.766213417,0.007239348,-0.002790056,-0.003505787
2.058333333,0.024162304,0.02833241,9.731206894,0.006323784,-0.002562506,-0.003563457
2.066666667,0.007918172,0.025235232,9.73860836,0.006181621,-0.001451133,-0.000223973
2.075,0.017181128,0.018175375,9.720376968,0.007613084,-0.002776645,-0.001789105
2.083333333,0.002839803,0.017588845,9.766214371,0.006522276,5.92E-05,-0.001065327
2.091666667,0.021129649,0.003039896,9.73343277,0.005753345,-0.002405143,-0.001475721
2.1,0.015957993,-0.042552263,9.715813637,0.005577654,-0.001160102,-0.003258567
2.108333333,-0.005665052,-0.109688848,9.731499672,0.006264773,-0.001847222,-0.003482988
2.116666667,-0.043904152,-0.150145322,9.69556427,0.007150385,-0.002904949,-0.007395593
2.125,-0.093380362,-0.138929665,9.56182766,0.006945187,-0.001671083,-0.010694842
2.133333333,-0.313387513,-0.087894134,9.438770294,0.007816048,0.006735967,-0.011531725
2.141666667,-0.101584673,-0.038274862,9.481594086,0.007290759,0.013147598,-0.011035943
2.15,0.001838281,-0.032752868,9.541770935,0.006916577,0.013889259,-0.011270648
2.158333333,-0.277766287,-0.002710635,9.503302574,0.006847283,0.019738048,-0.013432145
2.166666667,0.011573406,0.089696661,9.662610054,0.00648517,0.029852617,-0.011449467
2.175,0.249584273,0.007768305,9.744175911,0.006381455,0.024442386,-0.011808451
2.183333333,0.00749618,0.070062093,9.774624825,0.005638005,0.024006508,-0.012434772
2.191666667,0.212060332,0.194636002,9.928224564,0.008220182,0.021515978,-0.009583469
2.2,0.040599376,0.060655862,10.0293293,0.00866634,0.013574979,-0.00794815
2.208333333,0.140238643,0.045227427,10.02221298,0.004900369,0.008528202,-0.008365698
2.216666667,-0.902173698,0.041537002,10.52078056,0.005721603,0.011971401,-0.014658858
2.225,2.685985565,0.757393062,9.682617188,0.006661756,0.002047278,0.000211232
2.233333333,-2.301155329,-0.246851757,10.33875465,0.008026162,-0.019940342,-0.001933056
2.241666667,0.597684383,0.42195335,9.490499496,0.003104558,-0.006617274,0.001767423
2.25,0.039726891,0.021494294,9.55748558,0.009400848,-0.006904729,0.003427777
2.258333333,-0.26946187,-0.329145372,9.544919014,0.003075499,-0.006813977,-0.001291982
2.266666667,-0.177869752,0.193520173,9.549388885,0.004459127,0.001675777,0.000842918
2.275,0.637654483,0.042952821,9.730806351,0.010143851,0.006792296,0.005865109
2.283333333,0.002374744,-0.510956168,9.805996895,0.01127981,-0.003610398,-0.003722608
2.291666667,-0.115339592,0.055663425,9.599179268,0.002713386,0.001373569,-0.004189778
2.3,-0.130217507,0.095647819,9.684619904,0.008027056,0.004891875,-0.005764746
2.308333333,-0.020392755,0.030564098,9.779016495,0.009999005,0.005599112,-0.007344629
2.316666667,-0.259340614,0.134330392,9.870837212,0.005311657,0.003470246,-0.003921547
2.325,-0.022724582,0.398248851,10.01291466,0.006485618,0.003918193,0.001568485
2.333333333,0.156611502,-0.039183274,10.05666161,0.010507304,-0.002845044,0.002510425
2.341666667,0.092793815,-0.063510075,9.879455566,0.004428728,-0.01000638,-0.000261973
2.35,-0.123222075,0.074632838,9.633700371,0.004772512,-0.010311272,0.000913105
2.358333333,0.016680431,0.073409624,9.498138428,0.010195261,-0.004347141,0.000890753
2.366666667,-0.045678057,-0.228561938,9.479405403,0.00732563,-0.000542275,0.001575637
2.375,-0.05759469,-0.01142309,9.510599136,0.004246331,0.006942952,-0.002262981
2.383333333,0.05910394,0.005650746,9.711708069,0.009163463,0.008232699,-0.003419953
2.391666667,0.174464986,-0.126483724,9.836589813,0.008261981,0.002415873,-0.004200507
2.4,0.01939851,0.106892087,9.885844231,0.003573069,0.000594357,-0.005042307
2.408333333,-0.120804362,0.314875305,9.860415459,0.010099592,-0.000110869,-0.002319756
2.416666667,-0.088430554,0.052029785,9.853872299,0.009785313,-0.000267338,-0.000487287
2.425,-0.157806024,0.003733784,9.786984444,0.004846722,-0.004918474,-0.000932105
2.433333333,-0.077508204,0.145145491,9.764374733,0.006984976,-0.002058678,-0.001701483
2.441666667,0.058982342,-0.017216893,9.836696625,0.00713295,-0.003606374,0.001229618
2.45,0.140295863,-0.119888797,9.774353027,0.004961615,-0.005283269,-9.92E-05
2.458333333,0.051829554,0.073938884,9.652004242,0.006595146,-0.006630686,-0.000917799
2.466666667,0.014448747,-0.047695152,9.588220596,0.009937758,-0.004297071,3.29E-05
2.475,-0.046944436,-0.167319298,9.526255608,0.007494615,0.000224644,-0.002494107
2.483333333,-0.062673211,0.068838961,9.595410347,0.004621855,0.004605761,-0.004563067
2.491666667,-0.028511232,0.143407345,9.744253159,0.006935353,0.00680213,-0.002637611
2.5,0.028296759,0.042466514,9.892518997,0.00851166,0.00570104,-0.001483768
2.508333333,0.033024486,0.110168114,9.951756477,0.005838732,-0.00134697,-0.001793128
2.516666667,0.00369802,0.133371904,9.898254395,0.005957202,-0.002739092,-0.000692932
2.525,-0.083123185,-0.049047045,9.831961632,0.00695547,-0.001333558,-0.000591451
2.533333333,-0.075748608,-0.054061186,9.722180367,0.00389897,-0.003665385,-0.001342499
2.541666667,-0.085168898,0.05082095,9.632404327,0.008077572,-0.004119144,-0.001997879
2.55,0.025478426,-0.033089053,9.686959267,0.00756212,-0.003936746,-0.000711261
2.558333333,0.099302918,-0.083316311,9.691487312,0.007637225,0.000148198,-0.004611349
2.566666667,0.052909579,0.039941475,9.700306892,0.005143565,0.001874716,-0.002880361
2.575,0.047201466,0.053016864,9.692751884,0.007837952,8.56E-05,-0.002092654
2.583333333,-0.009370225,0.015185486,9.70813179,0.007752118,-0.000166751,-0.004694053
2.591666667,-0.059332833,0.126047403,9.740956306,0.005808332,-0.000278514,-0.000715284
2.6,-0.051858112,0.105218321,9.776119232,0.006488747,0.002035655,-0.001309418
2.608333333,-0.056886561,-0.014470201,9.813120842,0.005429679,0.002416991,4.25E-06
2.616666667,0.028918944,0.013826446,9.909620285,0.006182292,-0.001224477,-0.001021515
2.625,-0.009620607,0.044311862,9.857803345,0.008158935,-0.002130206,-0.000441241
2.633333333,0.023940509,-0.051543348,9.779001236,0.007079303,-0.005055272,-0.000928976
2.641666667,0.015056749,-0.038160432,9.681703568,0.005875837,-0.004365023,-0.00016228
2.65,-0.014384368,0.05280944,9.632411957,0.006760555,-0.003876394,-0.003314896
2.658333333,-0.0267014,0.014849319,9.633142471,0.008523285,0.000773178,-0.00215703
2.666666667,0.024534252,0.012467405,9.651481628,0.006489194,0.001595308,-0.002421685
2.675,0.055177029,0.099159859,9.74507618,0.006228115,0.00285242,-0.002518695
2.683333333,0.002017102,0.072694346,9.78591156,0.00628802,0.001889915,-0.001480192
2.691666667,-0.005114282,0.009742172,9.821911812,0.006403806,0.001658342,-0.001820846
2.7,-0.047573559,0.046386186,9.80659771,0.006354631,-0.001375581,-0.00190668
2.708333333,-0.063738912,0.002124388,9.767172813,0.005637111,-0.000475664,-0.000370607
2.716666667,-0.056078568,-0.054139834,9.76823616,0.00718235,-0.000689355,-0.002170889
2.725,0.004120037,0.008054101,9.812813759,0.006155692,-0.001944679,-0.001587037
2.733333333,0.00782521,0.024026399,9.759403229,0.007529932,-0.002407826,-0.002440908
2.741666667,0.028375328,-0.019505803,9.74375248,0.007757482,-0.001886115,-0.001816822
2.75,0.028239423,0.027760183,9.693396568,0.008674388,-0.00228444,-0.00189908
2.758333333,0.009878076,0.070233762,9.679778099,0.005726075,-0.001836046,-0.002016655
2.766666667,-0.031923138,0.041393504,9.691372871,0.007779165,0.000896341,-0.00109975
2.775,-0.002668011,0.044862632,9.735240936,0.006094,-0.000155127,8.38E-05
2.783333333,-0.020950677,0.047659393,9.764510155,0.0060332,0.000912658,-0.00187181
2.791666667,-0.024383903,-7.13E-06,9.831390381,0.008263993,0.001404863,-0.001877621
2.8,-0.00062945,-0.008211464,9.838871002,0.007014928,-0.002194582,-0.000983069
2.808333333,-0.013440192,0.017317032,9.807255745,0.006385477,-0.002110089,-0.00092674
2.816666667,-0.035277821,0.014556035,9.739575386,0.009281932,-0.004685113,-0.001703271
2.825,-0.023869038,0.008039796,9.739704132,0.00667472,-0.003339931,-0.000942834
2.833333333,0.001931268,0.024906199,9.724704742,0.008016773,-0.002424814,-0.001382287
2.841666667,0.003855382,0.045656595,9.722473145,0.007692213,0.000991786,-0.003018053
2.85,0.020399559,0.023089372,9.748558044,0.007551839,5.12E-05,-0.002579494
2.858333333,0.012939493,0.045477774,9.740805626,0.006811519,-0.001164572,-0.000964293
2.866666667,-0.021759156,0.045706641,9.733509064,0.006435101,0.000599274,-0.001812799
2.875,-0.014312839,0.013154078,9.726843834,0.007203137,0.001966808,-0.002656387
2.883333333,-0.0363147,-0.004019942,9.760190964,0.00497905,-0.000747025,-0.001597319
2.891666667,-0.045470621,0.01766037,9.818386078,0.005574524,0.001074044,-0.002790056
2.9,-0.016172579,-0.002517801,9.785804749,0.008496461,-2.82E-05,-0.002207099
2.908333333,0.018575933,0.005800955,9.791111946,0.007529932,-0.00235105,-0.002469072
2.916666667,-0.012696296,0.062501542,9.766183853,0.007333229,-0.003881312,-0.003769548
2.925,-0.021351349,0.017824929,9.704839706,0.007675671,-0.003200004,-0.001630848
2.933333333,0.008182853,0.022159507,9.699240685,0.007187937,-0.002896902,-0.002578153
2.941666667,0.010042592,0.061471533,9.711257935,0.008583189,-0.000277173,-0.001432804
2.95,0.013919433,0.031358063,9.726535797,0.006004142,0.000962728,-0.002531659
2.958333333,0.01944858,0.01590077,9.750669479,0.006629344,0.002845491,-0.000577145
2.966666667,-0.019234169,0.018275449,9.761662483,0.00554323,0.001971279,-0.001769435
2.975,-0.015707497,0.019362733,9.790948868,0.007955527,-0.000857894,-0.002055101
2.983333333,-0.044841174,-0.000758201,9.769431114,0.006840577,-0.001164572,-0.000992904
2.991666667,-0.02297507,0.038832761,9.790567398,0.008551224,0.001034927,-0.001818163
3,-0.021401519,0.060427174,9.738844872,0.007891598,0.001335123,-0.003022523
3.008333333,0.000665328,0.030456811,9.757787704,0.007151726,0.000153563,-0.000892764
3.016666667,0.009742172,0.037917219,9.733810425,0.006211574,-0.001527579,-0.002705116
3.025,0.018962186,0.047580712,9.731785774,0.006500817,-0.002761892,-0.003178545
3.033333333,-0.002617941,0.020750398,9.743366241,0.006607215,0.000475441,-6.57E-05
3.041666667,0.017467242,0.018912116,9.712265968,0.007583579,-0.001058621,-0.00199609
3.05,0.002896901,0.025414051,9.734132767,0.006575028,0.001668624,-0.000908858
3.058333333,-0.037395138,0.001902673,9.734674454,0.006813308,-0.001475274,-0.00061738
3.066666667,0.001287544,-0.00337614,9.793380737,0.008209452,0.000476335,-0.000439006
3.075,0.013919433,0.025378287,9.818400383,0.008072879,-0.001805199,-0.002416767
3.083333333,-0.029977566,0.033832949,9.76698494,0.006785591,-0.002062701,-0.001984467
3.091666667,-0.00777514,0.0235257,9.767192841,0.005641134,-0.002181617,-0.002125736
3.1,-0.026122183,0.054282926,9.733588219,0.00753351,-0.003139205,-0.001229395
3.108333333,0.012567545,0.052888121,9.715277672,0.007499086,-0.001155631,-0.000392959
3.116666667,0.020199597,0.018718993,9.714191437,0.006809731,-0.000120704,0.000254597
3.125,-0.007217219,0.015843548,9.732608795,0.007127585,-0.001638895,-0.002619282
3.133333333,0.000207432,0.021880547,9.72881794,0.007497298,-0.000449288,-0.001201678
3.141666667,-0.03992717,0.006058458,9.742050171,0.009161005,-0.00214183,-0.002013079
3.15,-0.005078139,0.027345235,9.750714302,0.007098527,-0.001642919,-0.002990783
3.158333333,-0.019627402,0.033332247,9.750605583,0.006725685,-0.000931658,-0.000623192
3.166666667,-0.035935882,0.019248301,9.75644207,0.007753906,-0.000303549,-0.001031351
3.175,0.006044152,0.049876776,9.77586937,0.00613021,-0.002527189,0.000109751
3.183333333,-0.019362895,0.040449351,9.748651505,0.006697967,-0.00133937,-0.001248171
3.191666667,-0.013597555,0.015514516,9.754711151,0.00756525,-0.004340435,-0.001186031
3.2,0.017746203,0.036257762,9.745061874,0.006838789,-0.000628109,-0.001657224
3.208333333,-0.000364795,0.016773418,9.754696846,0.007159773,-0.002539259,-0.001207042
3.216666667,0.018103844,0.012646224,9.70348835,0.007672319,-0.001493603,-1.65E-05
3.225,-0.03108618,-0.000765352,9.744161606,0.007266171,0.000186645,-0.00057938
3.233333333,-0.009320387,0.034820043,9.746992111,0.007810683,-0.00028209,-0.001662142
3.241666667,-0.011022531,0.019255454,9.76019001,0.006875,-0.002998383,-0.001258006
3.25,-0.014556035,0.040013004,9.763394356,0.006755637,-0.001875386,-0.003102099
3.258333333,-0.008948207,0.043968525,9.750483513,0.007100315,-0.001697906,-0.000185527
3.266666667,-0.001351887,0.024698766,9.761920929,0.006803919,0.000979716,-0.003592516
3.275,-3.730138302,0.161442548,11.33065605,0.009070476,0.023243835,-0.021362414
3.283333333,-10.29915333,0.024311852,22.04755592,-0.004971678,0.567209104,-0.032823533
3.291666667,25.76106644,2.028074265,15.63241577,-0.010988109,0.120208675,-0.026273736
3.3,-5.4470644,1.556040764,16.8296051,0.029378297,-0.15556764,-0.018144083
3.308333333,0.063697174,0.805127382,11.42545795,0.011103673,-0.125818075,0.018505077
3.316666667,-1.325635672,-0.370272636,8.119153023,0.01646853,-0.239608465,-0.007058741
3.325,-5.046254635,0.503333509,6.939446449,-0.022494357,-0.183516067,0.009960561
3.333333333,-3.840052128,1.210850358,6.293703556,0.013414935,-0.130333756,0.020792647
3.341666667,-3.744596958,-0.383019388,7.921195507,0.00796402,-0.023449254,0.040580987
3.35,3.585419178,-0.511379957,10.30633163,-0.002542836,0.013618343,0.037211996
3.358333333,4.70285511,-0.109137975,10.09198475,0.010872546,-0.059045831,0.020335309
3.366666667,2.126459599,-1.221701622,7.949379444,0.014289371,-0.080265645,0.005872262
3.375,-0.40350011,-0.622839689,8.015004158,-0.006552899,-0.041863806,-0.003413695
3.383333333,0.994867444,0.034855805,6.59659481,0.006603192,0.00452842,-0.010596043
3.391666667,-2.362304688,0.097657703,7.053088665,0.011350445,0.022815559,0.000565745
3.4,-3.189152002,-0.921405673,8.888326645,0.006934459,0.094306895,0.000470076
3.408333333,-0.456960142,0.54035306,11.12831593,-0.000367924,0.116465045,0.000846047
3.416666667,1.011223316,-0.318054289,12.07474422,0.010790287,0.065632032,-0.005627052
3.425,-0.260176986,0.152848944,11.90237427,0.004724677,0.034124207,-0.01405981
3.433333333,1.154869437,0.546083808,11.51597691,-0.003352896,0.010203308,-0.004899251
3.441666667,0.911062002,0.878878295,10.93307686,0.013474394,-0.046803296,-0.000221291
3.45,-0.256875843,-0.348659307,9.643288612,0.011166706,-0.048918749,0.005270976
3.458333333,-0.159795135,0.223822623,9.026843071,0.001222019,-0.064026895,0.000568875
3.466666667,-0.588277638,0.468455404,9.240058899,0.004776088,-0.034987687,0.006510205
3.475,0.485349,-0.183685005,9.042452812,0.009665951,-0.021918101,0.011839521
3.483333333,1.049834013,-0.016582621,9.045759201,0.001664601,-0.036148234,0.010678525
3.491666667,-0.208202645,0.285952628,9.265675545,0.008122725,-0.032897267,0.010571232
3.5,0.210944176,-0.601547062,8.591658592,0.009851924,0.001527803,0.008090089
3.508333333,-1.099871039,-0.403213084,9.03819561,0.000972563,0.008441025,-0.002537024
3.516666667,0.919816673,-0.074154094,9.140883446,-0.000312043,0.03983486,0.000487511
3.525,-1.231483459,-0.107163891,9.639035225,0.009779056,0.017511728,-0.009213311
3.533333333,0.002106458,-0.352015942,9.71469593,0.002307463,0.051870414,-0.003270638
3.541666667,0.576627016,0.276170701,10.0863533,0.005550607,0.039754167,-0.000493546
3.55,0.434098899,-0.028861722,10.14552116,0.011370563,0.016328825,0.001303382
3.558333333,-0.589294076,-0.023332743,10.04847717,0.007299253,0.017571183,-0.003772231
3.566666667,0.42296195,0.287787646,9.62866497,0.001117855,0.017925696,-0.003714114
3.575,0.00777514,0.416488588,10.11159515,0.009922782,0.002095783,0.00059458
3.583333333,-0.027502682,0.011616217,9.639950752,0.003973628,0.002235487,0.004002687
3.591666667,-0.157727346,0.327070892,9.599350929,0.003629397,-0.006514452,0.00688707
3.6,-0.239899203,0.234913662,10.17328072,0.006934905,-0.000796201,0.010361564
3.608333333,-0.047659393,-0.160574168,9.891566277,0.007798611,0.009210851,0.016474119
3.616666667,0.816232383,0.030850211,9.640036583,0.000196033,-0.005511266,0.012371961
3.625,-0.483654022,0.202339903,10.04076767,0.007249184,-0.010903616,0.012090318
3.633333333,-0.071149327,-0.283138126,9.413005829,0.005360833,0.000436994,0.013295125
3.641666667,-0.360646635,-0.197267905,9.592700005,0.003565245,-0.005725404,0.003644821
3.65,-0.330031753,0.044791065,9.731306076,0.005583912,-0.000449288,0.00414932
3.658333333,0.264805406,-0.27559188,9.672395706,0.009562235,0.009006995,-0.000122492
3.666666667,0.18861331,-0.221902654,9.607111931,0.00062878,-0.002694834,-0.007320935
3.675,-0.28320241,0.103094243,9.731593132,0.004059463,0.010079029,-0.007026776
3.683333333,0.793064296,-0.023382643,9.566362381,0.006853095,0.004533786,-0.002609894
3.691666667,0.053925283,-0.121934511,9.855809212,0.004227554,-0.00833664,0.000616709
3.7,-0.447989702,0.342413753,9.692810059,0.004591902,-0.017061768,-0.001533391
3.708333333,-0.046750706,0.173513561,9.581067085,0.007677014,-0.002187876,0.004140379
3.716666667,0.675392866,0.090733811,9.611188889,0.005256222,-0.018785601,6.19E-05
3.725,-1.161364079,0.249927521,10.1070013,0.006106518,-0.015777834,0.00010841
3.733333333,0.670457482,0.311828554,9.125461578,0.002848844,0.009276121,0.011065227
3.741666667,-0.756434619,-0.084532298,10.02140522,0.005251752,-0.014954807,0.006508864
3.75,-0.408835053,0.09707123,9.730377197,0.003226603,0.018134916,0.010093333
3.758333333,1.156664729,0.058188379,9.398491859,0.004775195,0.007011352,0.014841034
3.766666667,-0.008769386,-0.131426334,9.715249062,0.004379105,-0.005757146,0.016521953
3.775,0.043839581,-0.086742677,9.364144325,0.004324117,0.003066111,0.010742901
3.783333333,-0.280019194,-0.134015307,9.494233131,0.005375139,0.006630015,0.011755027
3.791666667,0.333143651,-0.231845096,9.411338806,0.006752061,-0.011302387,0.003286061
3.8,-0.885629117,-0.259812713,9.300919533,0.00238212,0.009392353,0.000189774
3.808333333,0.488524854,-0.099975288,9.497408867,0.006472653,0.020235618,-0.005047225
3.816666667,0.04478395,-0.075104848,10.0892849,0.007043986,0.005410455,-0.012009177
3.825,0.256357878,-0.044254638,9.947108269,0.005596429,0.002246216,-0.006415207
3.833333333,0.073531225,0.140424609,9.667860985,0.005911602,-0.010408729,-0.007109032
3.841666667,0.215736896,0.12766394,9.836467743,0.005631747,-0.011127143,-0.002921937
3.85,-0.488567919,0.135160133,9.744138718,0.001426769,-0.000250797,-0.004090532
3.858333333,-0.564352155,0.241973773,9.635245323,0.004160272,0.016143968,-0.006854213
3.866666667,1.15328145,0.347520888,9.627605438,0.004572233,-0.009492271,-0.000252585
3.875,-0.470349491,0.085547999,9.844314575,0.002974465,-0.011023872,0.00108522
3.883333333,-0.490406066,0.127199009,9.541069984,0.004692489,0.00211076,0.005232082
3.891666667,-0.241215318,0.170337796,9.797728539,0.005355914,-0.00038223,0.004835098
3.9,0.9147771,-0.080033161,9.454119682,0.004700089,-0.010324681,0.012606662
3.908333333,-1.317925572,-0.171632469,9.492008209,0.003730879,0.000820118,0.013833821
3.916666667,1.297561526,-0.049790941,9.197897911,0.007018951,0.004563738,0.019417958
3.925,-0.694916725,-0.385696501,9.196267128,0.009648516,-0.051987767,0.007373465
3.933333333,2.326556683,-0.36347115,7.462792873,0.003071029,-0.031396064,0.022788289
3.941666667,-1.818682313,-0.54075259,7.425769329,0.012428961,-0.093858277,0.012817896
3.95,-1.610119224,-0.910006166,7.129796505,0.007963127,-0.02071374,0.01405422
3.958333333,-0.0821504,-0.931557655,7.511744022,0.005759157,0.013766765,0.003725067
3.966666667,0.315140367,-0.814361036,8.315180779,0.006474888,0.033775509,-0.006501936
3.975,0.590887725,-0.402303129,9.208297729,0.008141054,0.038710074,-0.0142963
3.983333333,0.813173771,-0.289484739,10.00904083,0.004620513,0.03773058,-0.016395209
3.991666667,0.464299649,0.144968078,10.11382484,0.009210852,0.028919618,-0.021175996
4,0.053894259,0.27497822,9.942782402,0.006823589,0.024872449,-0.01533838
4.008333333,-1.656958938,0.465278268,10.00506592,0.008555919,0.02736924,-0.021440203
4.016666667,-18.46420479,0.460841894,19.65789032,-0.006974026,0.390599778,-0.092313303
4.025,17.73893356,2.829198599,23.24381638,-0.037691074,0.71399502,-0.10124195
4.033333333,21.99575996,4.608039379,17.60108185,0.022308603,-0.209931945,-0.079027749
4.041666667,-12.03895092,2.748800278,11.62504005,0.026017363,-0.401321665,0.007745417
4.05,-0.873248875,1.506496906,4.799370289,0.022824065,-0.280765289,0.072000324
4.058333333,-4.793984413,-1.212333679,4.069044113,0.007058518,-0.279509975,0.069035689
4.066666667,-5.499792576,0.016533349,3.786208868,-0.035919793,-0.155813067,0.07365865
4.075,-4.252229214,-0.274490893,3.98705554,0.033737507,-0.084886828,0.083151596
4.083333333,-4.840374947,-2.542577505,7.487479687,-0.007279137,0.028701678,0.086953108
4.091666667,2.295238972,-1.566149831,12.73057079,-0.009117642,0.119946287,0.067969243
4.1,9.450105667,-2.099951267,12.25583839,0.02920752,-0.009118535,0.039391831
4.108333333,2.501969337,-2.570725203,8.88551712,0.015229522,-0.101980319,-0.011900097
4.116666667,0.503804743,-1.094982266,7.454317093,-0.001407322,-0.064065336,-0.032820375
4.125,1.616989493,-0.174603537,5.47056818,0.022980966,-0.045220271,-0.040634853
4.133333333,-3.629417896,-0.713699043,5.581268311,0.007570168,0.012144411,-0.041250451
4.141666667,-2.813674212,0.19045271,7.182572842,-0.000788601,0.124953721,-0.047436775
4.15,-0.561656535,0.624165654,10.71538448,0.003074158,0.156989967,-0.042683261
4.158333333,2.401250362,0.509696603,11.88215542,0.000519252,0.110909973,-0.043039105
4.166666667,0.324822843,1.234373331,12.28790379,-0.007691543,0.029948732,-0.040357689
4.175,-0.014750648,1.353670835,11.30134869,0.006837001,0.051168537,-0.013107586
4.183333333,1.119977832,0.518860102,10.17313766,0.005607159,7.76E-05,-0.001578096
4.191666667,-0.828385055,0.35676235,9.384493828,0.004367034,-0.016225331,0.007319817
4.2,-1.161256909,0.540218472,9.443948746,0.004630349,-0.016763583,0.01376587
4.208333333,-1.253027916,-0.4229047,9.98231411,0.00617894,0.004506962,0.016299321
4.216666667,0.452610433,0.180501997,10.45791435,-0.000823471,3.60E-05,0.010901157
4.225,-0.014477354,-0.046643689,10.87151337,0.00750378,-0.022486305,0.013300713
4.233333333,0.557262123,-0.376445919,9.94572258,0.008430297,-0.026613942,0.014646118
4.241666667,0.69359237,-0.388685971,9.416340828,0.004406823,-0.046668286,0.005460973
4.25,0.160920426,-0.268675208,8.939413071,0.008465166,-0.044393676,0.005796262
4.258333333,-0.518455386,-0.404993117,8.673892975,0.00876648,-0.032366616,-0.005733898
4.266666667,-0.307679534,-0.113980554,9.011359215,0.003974076,-0.013678027,-0.004704784
4.275,-0.424356699,0.085869938,9.156261444,0.00675385,0.010732173,-0.000934787
4.283333333,0.481836975,0.041493643,9.292472839,0.006274386,0.023139006,0.004326129
4.291666667,0.706099927,0.073803037,9.664784431,0.005016603,0.007819623,-0.000261079
4.3,-0.162212178,0.219771102,9.325704575,0.004496233,0.007989503,-0.004268907
4.308333333,-0.189350054,0.049604967,9.38924408,0.001346523,0.022448305,-0.001181113
4.316666667,0.630759537,0.209084973,9.571549416,0.002397544,0.00152132,-0.00199922
4.325,-0.752886772,0.06539844,9.640937805,0.005124342,-0.000536016,0.001718247
4.333333333,-0.370903522,-0.087536395,9.787401199,0.004046945,0.017344525,-0.002342556
4.341666667,-0.243425548,-0.094031274,10.1023674,0.003359378,0.019568616,0.001231854
4.35,0.647725701,0.002496342,9.923890114,0.006449854,-0.003860301,0.00311037
4.358333333,-0.444677949,-0.140531912,9.827462196,0.006216045,-0.002805703,0.000863035
4.366666667,-0.020321228,-0.018847741,9.76639843,0.004481033,0.003727749,-0.002147641
4.375,0.167783901,-0.03825314,9.621890068,0.004722889,-0.0039059,-0.007645496
4.383333333,0.509919047,-0.004291706,9.39495182,0.006072093,-0.016425165,-0.004948426
4.391666667,-0.286299706,-0.059990708,9.676571846,0.008085172,-0.021864455,-0.007447005
4.4,0.18988663,0.13160494,9.358616829,0.006067847,-0.015736705,-0.00678939
4.408333333,-0.445443302,0.001244595,9.378536224,0.006967093,-0.006355749,-0.001376028
4.416666667,0.174822271,0.195001125,9.364109039,0.005108695,-0.004187543,0.004375082
4.425,0.117063425,0.082751237,9.343708992,0.003856054,0.005826662,0.006490536
4.433333333,-0.078802869,0.072923236,9.531334877,0.006520041,0.00524594,0.007469133
4.441666667,0.103866436,0.072007671,9.514453888,0.003215874,0.010933792,0.007504003
4.45,0.004499138,0.080533862,9.688468933,0.00333926,0.004154237,0.001794693
4.458333333,0.138443276,-0.062451471,9.653899193,0.00241252,-0.000692932,0.007017611
4.466666667,-0.154629901,0.01813242,9.756621361,0.005097519,-0.000717967,0.002922607
4.475,-0.042179767,-0.073044896,9.8634758,0.006502605,-0.000889635,0.004668795
4.483333333,-0.118572794,-0.191295564,9.823185921,0.0064503,-0.004649794,0.001920315
4.491666667,-0.113508463,-0.107850567,9.65220356,0.005559324,-0.003884442,-0.000350042
4.5,-0.060212385,-0.081649877,9.647660255,0.007113279,-0.005535406,0.003878406
4.508333333,-0.061449949,-0.160552904,9.562099457,0.004588773,-0.006619062,-0.003255438
4.516666667,-0.23752445,0.001144455,9.532107353,0.007233537,0.000159374,-0.003846442
4.525,0.21920602,-0.032709952,9.781168938,0.006243762,0.004041133,-0.010111885
4.533333333,0.103651844,-0.046607926,9.807527542,0.004677289,0.001272983,-0.009381848
4.541666667,-0.025678365,0.097171329,9.660679817,0.004655607,-0.00071439,-0.008350498
4.55,0.115282729,0.066042185,9.564180374,0.007484333,-0.000315172,-0.010821359
4.558333333,-0.006230126,0.096470393,9.356562614,0.006004142,-0.000335737,-0.004237613
4.566666667,-0.235385761,0.103880741,9.259799004,0.005114507,0.001965914,-0.001381393
4.575,0.183878347,0.115325443,9.313429832,0.006971564,0.005506572,0.003542222
4.583333333,-0.327006519,0.034791429,9.322543144,0.006243315,0.010867628,0.004321435
4.591666667,-0.005958318,0.080483787,9.248991013,0.003017829,0.019114855,0.003371001
4.6,0.097086459,0.062302276,9.342782974,0.003610175,0.033188526,0.001069574
4.608333333,0.481221825,-0.009563351,9.263653755,0.004491762,0.024226903,0.002434425
4.616666667,0.161117762,-0.085755408,9.2684021,0.00494731,0.024638195,0.001196984
4.625,0.073273726,-0.071049191,9.392705917,0.002893996,0.021602708,-0.000557922
4.633333333,-0.004642195,-0.160946116,9.575059891,0.005270528,0.021132855,0.000219726
4.641666667,-0.401889622,-0.117349543,9.733552933,0.004052756,0.02780109,0.000462923
4.65,0.088557027,-0.12473128,9.81758976,0.003115734,0.037398863,0.0051534
4.658333333,-0.046829633,0.002303349,10.03732109,0.004447504,0.018017789,-0.003194192
4.666666667,0.171653926,-0.062880643,9.894506454,0.006391066,0.007258348,-0.003517411
4.675,0.01096551,0.092371449,9.827562332,0.007326524,-0.013415605,-0.012073106
4.683333333,-1.067948103,0.030893128,9.950770378,0.004470751,0.007812024,-0.008190453
4.691666667,0.36837858,0.129738271,10.00036812,0.008161841,-0.00351607,-0.006729932
4.7,0.332063675,0.130388856,10.06448746,0.005610735,-0.024447076,-0.010901828
4.708333333,-0.663855374,0.112921931,9.946421623,0.008101714,-0.023655797,-0.000785025
4.716666667,-0.099946678,0.094546281,9.589472771,0.006243762,-0.013328877,0.001203242
4.725,0.012825082,0.161468133,9.942750931,0.005288856,-0.019564815,0.003359825
4.733333333,0.14921549,-0.069075152,9.856294632,0.006015318,-0.023677701,0.005568712
4.741666667,-0.081283204,-0.081162214,9.649972916,0.006854436,-0.029752253,-0.004352505
4.75,0.389117658,-0.012544239,9.703895569,0.007854046,-0.040042516,-0.003765079
4.758333333,0.117693782,-0.178992614,9.445691109,0.008847844,-0.049173559,-0.007859633
4.766666667,-0.69165355,-0.153529406,9.137227058,0.006946082,-0.03133616,-0.00318391
4.775,0.284418494,-0.003912605,9.300583839,0.009715126,-0.01834749,-0.00379056
4.783333333,-0.217990041,-0.257995903,9.381260872,0.006853989,-0.009149829,-0.006190787
4.791666667,0.340453863,-0.018232597,8.908815384,0.00386857,-0.003935852,-0.003463765
4.8,0.200658515,0.098823763,9.444141388,0.00681286,-0.002952336,-0.003311767
4.808333333,0.169221953,-0.119402409,9.484054565,0.009781738,-0.000493099,-0.0038983
4.816666667,-0.072329551,0.177533567,9.447933197,0.006004142,-0.003954628,-0.010477127
4.825,-0.614465058,0.111026116,9.803292274,0.006624651,0.012412197,-0.005213083
4.833333333,0.669348836,0.041543923,9.444749832,0.005474831,0.012937483,-0.007966928
4.841666667,-0.480799794,0.119781509,9.910650253,0.005265163,-0.002878572,-0.005598888
4.85,-0.037287772,0.198097989,9.454534531,0.006322443,0.008954241,-0.003040405
4.858333333,-0.396696657,0.027817406,9.854715347,0.006814201,-0.001792234,-0.000524393
4.866666667,-0.016086683,0.078574233,9.808198929,0.003738032,0.016428966,0.006829849
4.875,0.020721786,0.082751237,9.692566872,0.008515237,-0.004585867,0.003438506
4.883333333,-0.113515556,-0.100375608,9.640113831,0.003139875,0.015714126,0.006927753
4.891666667,1.140599489,0.05049907,9.659893036,0.007196432,-0.015965596,-0.001127914
4.9,-0.468239456,-0.1678271,9.687129974,0.005534737,-0.015432262,-0.001477957
4.908333333,-0.426516861,-0.089575052,9.248576164,0.006970223,-0.011342174,-0.010816888
4.916666667,-0.539732099,-0.17244789,9.526406288,0.003349542,0.027923583,-0.002626882
4.925,1.198530316,-0.010428845,9.515062332,0.006591122,0.002893548,-0.008038902
4.933333333,-0.111312538,-0.199349731,9.670879364,0.004499809,-0.005261811,-0.005902437
4.941666667,-0.397182852,0.013568734,9.895594597,0.007196878,-0.006556475,-0.003280026
4.95,0.268174827,-0.064969406,9.762759209,0.008239852,-0.002423026,-0.006267232
4.958333333,-0.054096743,0.008146889,9.852841377,0.008314063,-0.007821188,-0.00560783
4.966666667,0.887403131,0.160488337,9.381998062,0.006698415,-0.024726487,-0.010254049
4.975,-1.09072268,-0.003554963,9.480570793,0.008967207,-0.017553078,-0.009457847
4.983333333,-0.681644499,0.055026822,9.382390976,0.005468126,-0.005603359,-0.009503894
4.991666667,0.713281631,0.21965678,9.431575775,0.007099868,0.023777168,-0.005004755
5,0.278631836,0.14703384,9.686272621,0.007319147,-0.00801208,-0.001368429
5.008333333,-0.165237829,0.022309717,9.581676483,0.007830799,0.002858232,8.43E-05
5.016666667,-0.676515877,0.051157132,9.591340065,0.003389331,0.01655861,0.005790004
5.025,0.108136676,-0.013225607,9.591268539,0.004753288,0.027952193,0.004028168
5.033333333,0.902224064,0.106391437,9.779644966,0.005635994,0.001230289,0.002461472
5.041666667,-0.862697244,-0.245628625,9.813829422,0.008166089,-0.005662816,-0.004811182
5.05,-0.631603241,-0.025314268,9.597218513,0.003590504,0.010706242,-0.007334793
5.058333333,1.069607496,-0.072522677,9.832856178,0.004187766,0.012477913,-0.005877402
5.066666667,0.026086323,-0.110968933,10.24518967,0.00665818,-0.020065964,-0.012068188
5.075,-0.525919914,-0.061206542,9.402132034,0.005578994,-0.022921287,-0.013221585
5.083333333,0.054990958,0.052794978,9.177097321,0.006285561,0.01008685,-0.003809783
5.091666667,0.253375381,-0.145725042,9.877569199,0.007166032,-0.005357927,-0.003527246
5.1,0.29328087,0.073345251,9.441502571,0.006261868,-0.019618463,-0.00912703
5.108333333,-0.45355463,0.03979842,9.560053825,0.005363515,-0.006879247,-0.006875671
5.116666667,0.226652339,0.030699799,9.631774902,0.007821411,-0.008037561,-0.011667182
5.125,-0.017567566,0.081063554,9.909282684,0.007968492,-0.016798008,-0.010205321
5.133333333,0.048675098,0.074332342,9.564888954,0.004789499,-0.014665118,-0.006974469
5.141666667,-0.428140074,0.025457099,9.45260334,0.00482124,0.001141102,-0.006294502
5.15,0.461873531,0.089324556,9.629084587,0.006810401,-0.007327194,0.001913833
5.158333333,-0.318587631,0.006609227,9.71492672,0.004243648,-0.010151674,0.001249736
5.166666667,0.097900964,0.044082969,9.259813309,0.006127751,0.002559377,0.008016102
5.175,-0.508309603,-0.061643202,9.606132507,0.007347982,0.011734464,0.003796148
5.183333333,0.297579736,-0.005643704,9.506408691,0.003702714,0.013919657,0.001704835
5.191666667,-0.175101414,-0.131325856,9.508460999,0.005456949,0.008614482,-0.004360552
5.2,0.545683265,-0.036844295,9.702853203,0.004266895,0.012878024,-0.005861309
5.208333333,-0.170052096,-0.153349832,9.862804413,0.005794027,0.000623415,-0.008289252
5.216666667,-0.743552327,-0.13313587,9.808800697,0.00194222,0.021309887,-0.009349213
5.225,0.985525846,0.013268524,9.650709152,0.004870192,0.003707855,-0.006765696
5.233333333,0.379966259,-0.067894943,9.750369072,0.009504118,-0.019948385,-0.007229736
5.241666667,-0.684312463,-0.129244715,9.552021027,0.004168543,-0.007780505,-0.005768768
5.25,0.393292129,0.141318873,9.669885635,0.005984918,0.004935686,-0.00381336
5.258333333,-0.019605942,0.035242058,9.857897758,0.008820574,-0.022431319,-0.011735581
5.266666667,-0.656681061,-0.013905127,9.23490715,0.004620066,-0.000478346,-0.010587551
5.275,0.124209121,0.167555347,9.323480606,0.00491311,0.014425945,-0.007551615
5.283333333,0.071413986,0.020779008,10.01393032,0.007251866,0.009933735,-0.004673936
5.291666667,-0.328150988,0.037330862,9.605918884,0.003310202,0.015377048,-0.005076731
5.3,-0.053696387,0.095669284,9.474876404,0.003282485,0.017040979,0.000159821
5.308333333,-0.031065151,0.070977479,10.12977123,0.007344853,0.003978993,0.005158318
5.316666667,0.352270365,-0.165166304,9.819994926,0.00446628,0.0086346,0.005281704
5.325,0.477674007,0.01977744,9.566010475,0.00274468,-0.006547981,0.001368205
5.333333333,-0.680070877,-0.093702242,10.24335003,0.008396321,-0.00406505,-0.001915621
5.341666667,0.37358582,-0.154665917,9.552127838,0.00678559,-0.001245936,-0.00067505
5.35,-0.042509347,-0.063724674,9.608685493,0.005731439,-0.0124987,-0.007460416
5.358333333,0.064318366,-0.008948207,9.619350433,0.011012025,-0.016267354,-0.006487182
5.366666667,0.36006704,-0.096914075,9.264340401,0.00881208,-0.018783369,-0.010818676
5.375,0.296850145,0.008397438,9.335962296,0.004379552,-0.025822212,-0.008142171
5.383333333,-1.127395391,0.096956789,9.613928795,0.007548709,-0.007863657,-0.004625654
5.391666667,-0.063203253,-0.110988602,9.687520027,0.004427387,0.029963931,-0.002419002
5.4,1.225811362,0.129115969,9.710170746,0.003704055,-0.005517078,-0.005375362
5.408333333,-0.988115191,0.080405109,10.01887989,0.006765472,0.001818387,-0.005536748
5.416666667,-0.321134031,-0.024713073,9.936314583,0.007215208,0.012422925,-0.001402404
5.425,-3.415337563,-0.468391448,12.45084858,-0.006924847,0.113114397,0.016024381
5.433333333,2.919655085,-0.171559632,12.78408337,-0.01517923,0.157095245,0.030800598
5.441666667,1.913667083,-0.512152612,13.94035816,-0.000865941,0.056786205,0.020584768
5.45,0.78680557,-0.671415389,13.55994511,0.002116571,0.008387827,0.016163414
5.458333333,-0.071505882,-0.677761316,12.75233078,0.012586547,-0.045938247,0.008326134
5.466666667,-0.52225709,-0.90785414,10.72535992,0.019534418,-0.076701736,0.000278514
5.475,-2.076667786,-1.126746535,9.213226318,0.018704689,-0.079107328,-0.014301665
5.483333333,-1.404981852,-0.54306531,9.029331207,0.01056721,-0.039636588,-0.023404103
5.491666667,0.528977156,0.251397759,9.556263924,0.01071742,-0.034253185,-0.024873569
5.5,1.012008667,0.493970811,9.804659843,0.01272692,-0.042590267,-0.022611032
5.508333333,2.811474085,0.831968307,8.86682415,0.01029026,-0.06186606,-0.019832375
5.516666667,13.03935242,2.305037498,3.343150854,0.033444926,-0.356720341,-0.067919633
5.525,11.05899715,3.207023621,-8.522964478,0.103086422,-1.005140179,-0.194047837
5.533333333,-47.32620621,-0.820756257,-7.392435551,0.074538733,-0.531551541,-0.14141139
5.541666667,-5.351672649,3.054699898,-2.938978434,-0.049465084,0.542083444,0.052458781
5.55,11.53321075,0.738277853,11.40534496,-0.049095824,0.620779588,0.069820985
5.558333333,10.07778072,1.378840208,14.08908653,-0.081082453,0.438387508,0.050354933
5.566666667,0.8241027,1.194014311,17.34844208,-0.085731125,0.45201437,0.074386483
5.575,10.12226868,1.77432251,20.51501656,-0.023807801,0.340581186,0.108107438
5.583333333,8.780995369,-1.025272369,17.70354271,0.025809023,0.091975065,0.106564618
5.591666667,-3.300447226,-3.505912304,12.09482479,0.01407389,-0.045137572,0.077469991
5.6,-4.896854877,-1.049322248,9.479593277,0.029572985,0.024155599,0.078483241
5.608333333,-4.251060963,-4.916694641,9.412366867,0.074015397,0.025199916,0.031393387
5.616666667,-7.046084404,-5.960254192,10.75423336,0.002513554,0.028909785,-0.067770967
5.625,-3.78646183,-0.477869153,13.47870445,-0.054152834,0.033086371,-0.106530879
5.633333333,0.218868464,1.332964659,16.30967331,0.004139485,-0.026623332,-0.113096745
5.641666667,2.181768656,0.915583372,16.04911423,-0.00546969,-0.116941393,-0.082468262
5.65,7.07842207,3.577512026,12.16988945,0.017924807,-0.212309849,-0.041573226
5.658333333,0.12173827,1.166067243,6.951438904,0.077271511,-0.306633505,-0.035122255
5.666666667,-4.79472065,-1.222958803,5.225444317,0.025543479,-0.173941986,-0.019895638
5.675,1.546815515,1.226152539,6.46522665,-0.023569288,-0.059542718,-0.011754132
5.683333333,3.345858574,2.18969059,7.060799122,0.018776884,-0.056762287,0.001818387
5.691666667,0.261971951,0.001229811,6.036215305,0.01400795,-0.042129357,0.020765152
5.7,-2.239140034,-0.318365604,6.834320068,7.89E-05,0.01925076,0.019704074
5.708333333,-0.258324653,0.388009965,8.253033638,0.000591674,0.101308179,0.028090335
5.716666667,1.072559595,-1.032473326,9.275785446,0.01077956,0.07168692,0.006690368
5.725,-1.693502903,-0.81779176,10.35348606,-0.019939892,0.069538153,-0.004189331
5.733333333,-1.679962039,0.618749738,11.07983303,-0.012387832,0.095908246,-0.000654485
5.741666667,1.280373573,0.204778597,11.72357368,0.006093329,0.08427302,0.015440755
5.75,0.863398194,-1.0318048,12.03071022,0.00543102,0.027410812,0.006241974
5.758333333,-0.241129488,-0.167076111,11.04670048,-0.000670132,-0.002795868,0.003771784
5.766666667,-0.264457345,-0.154056683,10.43802452,0.015697139,-0.030577063,-0.009356814
5.775,0.245099321,-0.739568174,10.32110214,0.007520544,-0.008317416,-0.012189786
5.783333333,-0.083070047,0.234615624,9.774651527,0.000637721,-0.051684221,-0.026574157
5.791666667,0.0114742,0.650774062,9.198264122,0.013955647,-0.038922873,-0.016213933
5.8,0.014060195,-0.326688588,9.045870781,0.021969065,-0.038879281,-0.015970065
5.808333333,0.210472405,-0.204406798,9.002217293,0.002355744,-0.020881829,-0.020076242
5.816666667,0.511971891,0.594572902,9.06287384,0.005564241,-0.018212481,-0.011347091
5.825,-0.54992485,-0.026687257,9.487681389,0.009394365,0.014521614,-0.001836046
5.833333333,1.53235352,0.115282372,9.262145042,0.001708636,-0.005772792,-0.004588549
5.841666667,-0.97800833,0.386210591,9.89156723,0.001465662,-0.01792905,0.000361442
5.85,-0.641695917,0.173942819,9.315677643,0.010935357,0.010893334,0.001089914
5.858333333,-0.463632971,-0.365023881,9.6284132,0.005045884,0.015539105,0.0017292
5.866666667,0.115089238,0.058917906,10.10874653,-0.00286382,0.027679492,-0.00186108
5.875,0.487358958,0.058088239,9.893118858,0.007637226,0.011624042,-0.000204303
5.883333333,-0.606046081,-0.150731862,10.03111076,0.004003581,0.01090831,-0.002301874
5.891666667,0.153328344,-0.127535194,10.18717861,-0.002031408,0.023133638,0.002686339
5.9,0.09918838,0.108036295,10.08686161,0.00682493,0.01604271,0.006697073
5.908333333,0.394121408,-0.374995083,10.15740299,0.0103714,0.004662984,0.004731383
5.916666667,-0.033840101,-0.490999758,10.08979988,0.002820232,-0.010650136,-0.005526913
5.925,-0.168971613,0.026508436,9.848899841,0.002247558,-0.001279912,-0.012256397
5.933333333,0.139387444,-0.011816497,9.909913063,0.008927418,-0.015692892,-0.015027677
5.941666667,-0.099181317,-0.185129881,9.928238869,0.00635016,-0.01664109,-0.019097197
5.95,-0.043181635,0.100203842,9.644227982,0.004972344,-0.019978787,-0.015139888
5.958333333,0.4789581,0.183682367,9.54211998,0.009718927,-0.024774322,-0.015830138
5.966666667,-0.328065157,-0.138636395,9.680070877,0.007197325,-0.011631865,-0.010208895
5.975,-0.045062911,0.121219233,9.478590012,0.000283208,0.003580222,-0.005878743
5.983333333,-0.001316123,0.468039125,9.525648117,0.004589667,-0.008995148,-0.004816993
5.991666667,-0.544588864,-0.014505966,9.562614441,0.009527364,-0.000383571,-0.00181414
6,-0.77458322,-0.176507145,9.397257805,0.000772284,0.029599583,-0.004174579
6.008333333,0.643977702,0.277201235,9.587514877,0.00189528,0.024868877,0.00100788
6.016666667,0.35743472,0.017610298,10.11345482,0.00537335,0.021621928,-0.000681755
6.025,-0.089546442,-0.222832516,9.838270187,0.003997321,0.006506629,-0.000561051
6.033333333,0.169393629,0.08186429,9.576583862,-0.001520426,0.003534846,-0.00767813
6.041666667,-0.054361608,0.02027831,9.902131081,0.007388887,0.020142854,0.002177147
6.05,0.535447538,-0.341519654,9.789795876,0.008243204,0.010678301,0.002357309
6.058333333,-0.321470231,-0.232588992,9.897974968,1.50E-05,0.001727188,-0.00240872
6.066666667,0.080469482,0.021401307,9.953059196,0.005022861,-0.010262989,-0.008280758
6.075,-0.575081408,-0.213540971,10.02810001,0.006798554,0.009752679,-0.00964248
6.083333333,1.004158974,-0.021272555,10.02369404,0.003590057,-0.004751276,-0.008470308
6.091666667,-0.340086251,0.157235786,10.46402073,0.007431804,-0.028023726,-0.015839301
6.1,-0.544324577,-0.034340553,9.927817345,0.008602859,-0.005676675,-0.008976371
6.108333333,0.059082482,-0.118522607,9.78087616,0.006555357,-0.008348709,-0.010380117
6.116666667,0.39709723,0.214492306,9.935505867,0.004422022,-0.009146699,-0.005181788
6.125,-0.296885878,0.203298062,9.705385208,0.011679029,-0.020795551,-0.001533838
6.133333333,-0.801998198,-0.043946899,9.555524826,0.007585368,-0.011000628,-0.002832973
6.141666667,0.156654418,0.035943035,9.796619415,0.000885164,0.02011067,0.0008646
6.15,0.734582663,0.313344598,9.919519424,0.004866616,-0.001323276,-0.003245603
6.158333333,-0.297515512,-0.145524517,9.638468742,0.005448008,-0.002401567,-0.001480192
6.166666667,0.142742127,-0.079124749,9.506177902,0.003072817,0.002411179,-0.00199922
6.175,0.174543843,-0.093222752,9.69172287,0.003734902,0.005587488,-0.005095954
6.183333333,-0.700671196,-0.156389892,9.645736694,0.005126577,0.003391566,-0.002222299
6.191666667,0.167097569,-0.289189428,9.72515583,0.00095334,0.017559116,-0.000861918
6.2,0.570146024,0.027280973,10.19348049,0.005601348,0.006131104,0.000156245
6.208333333,-0.01901941,-0.203062057,10.23365784,0.006050188,-0.0081529,-0.004543397
6.216666667,-0.16694735,-0.122163408,9.899270058,0.005806098,-0.011641252,-0.00868087
6.225,0.446301639,0.012681991,10.00752068,0.005002743,-0.006524734,-0.008751951
6.233333333,-0.39482978,-0.002381897,10.1500845,0.009310992,-0.0190288,-0.009972405
6.241666667,-0.47969842,-0.091176964,9.765469551,0.007275559,-0.013785765,-0.010501716
6.25,-0.386546791,0.026272392,9.77340889,0.003702267,0.010953016,-0.004373518
6.258333333,0.743930936,0.236444578,9.86384201,0.006474441,-0.003428447,-0.007471145
6.266666667,0.423383921,0.155438423,9.52362442,0.009509258,-0.026164434,-0.004764911
6.275,-1.514228225,-0.065484278,9.667646408,0.004506515,-0.001311205,0.003221238
6.283333333,-0.193614677,0.144101024,9.403429985,-0.001405087,0.039079788,0.004175696
6.291666667,1.601528645,0.278696209,9.83741951,0.005381844,0.006233032,0.006734178
6.3,-0.041486491,-0.137971193,9.995060921,0.004379552,-0.000627662,-0.001226266
6.308333333,-1.00532496,-0.046736676,9.628077507,0.004105509,-0.00250886,-0.000759096
6.316666667,0.194315746,-0.061594568,9.701769829,0.001911821,0.029465915,0.001812128
6.325,0.396460623,-0.150259778,10.12803936,0.006300761,0.002483378,-0.005068236
6.333333333,0.229076952,-0.178213075,9.878626823,0.003985028,-0.001848116,-0.002001902
6.341666667,-1.10049355,-0.281936467,9.976634979,0.005507913,0.005680923,-0.005216659
6.35,0.68945545,-0.098165572,9.930913925,0.005173965,0.010378107,0.000813413
6.358333333,0.960999012,-0.046550881,9.981277466,0.007386429,-0.006837671,-0.006428171
6.366666667,-0.720141113,-0.164694443,9.913991928,0.00638816,-0.022030759,-0.008812303
6.375,-0.138142541,0.051593464,9.540783882,0.005023532,8.58E-05,-0.007222137
6.383333333,-0.254398018,-0.049933996,9.959424973,0.00696374,0.005653429,-0.007051363
6.391666667,1.555900812,0.216301814,9.756191254,0.003890029,-0.014966432,-0.005429008
6.4,-1.043199182,-0.032481059,9.935656548,0.007137867,-0.022875241,-0.00979716
6.408333333,-0.821439624,0.0372377,9.719718933,0.004488409,0.004074438,-0.003696679
6.416666667,-0.344938695,0.059268456,9.970118523,0.001068009,0.026788294,0.004035098
6.425,1.134970188,0.293288022,9.941271782,0.005794027,-0.004698524,0.007868799
6.433333333,-0.340561152,0.011651982,9.999474525,0.006491429,-0.006883717,0.005736804
6.441666667,-0.226895332,0.003955522,9.851009369,0.006136022,-0.013790682,0.006764131
6.45,-0.612576604,-0.199814662,10.04023075,0.002819785,0.016553691,0.002606094
6.458333333,0.677266955,0.184178546,9.884792328,0.005549042,0.000623415,0.000864377
6.466666667,-0.191131115,-0.222417653,9.922459602,0.002305227,0.00607254,-0.001816375
6.475,0.535182834,0.002052866,9.625137329,0.004487292,-0.013676236,-0.002620176
6.483333333,-0.648190558,-0.326877385,10.09502983,0.003808219,0.007149938,-0.005561336
6.491666667,0.44991383,0.03474851,9.807349205,0.004245883,0.001197878,-0.005698581
6.5,-0.772807479,-0.348093092,10.18243694,0.004129426,0.007044656,-0.002411849
6.508333333,0.999216914,0.246450931,9.687067032,0.004217718,-0.003404754,-0.005461196
6.516666667,-0.878018498,-0.311377794,10.1556282,0.008598165,-0.012995375,-0.006961952
6.525,0.747772515,0.081928663,9.61387825,0.005342057,0.002816656,-0.010828064
6.533333333,-0.628205478,-0.174236476,10.08887768,0.004899698,-0.013084787,-0.011617112
6.541666667,0.028346717,0.213834241,9.90591526,0.003593186,0.01379627,-0.005183576
6.55,0.445593625,0.131254464,9.852983475,0.00717095,-0.013464782,-0.007120209
6.558333333,-0.122048959,0.073595598,9.864549637,0.005478855,-0.010240637,0.002689693
6.566666667,0.439835548,0.207317874,9.540089607,0.007972961,-0.014986548,0.003527022
6.575,-0.508195162,0.052144226,9.795396805,0.007299253,-0.010616161,0.010306131
6.583333333,-0.108751826,-0.095597744,9.627848625,0.001728082,0.008920714,0.006022024
6.591666667,-0.014176935,-0.017653216,9.884520531,0.002722328,0.005675111,0.006545076
6.6,0.158092141,0.088423446,9.908854485,0.003266838,-0.00037776,0.001517967
6.608333333,0.223104626,-0.059812114,9.6655159,0.007055609,-0.001120314,0.004588325
6.616666667,-0.099760555,-0.211767226,9.9332304,0.006810625,-0.008414426,0.002049513
6.625,-0.387726992,-0.245192304,9.998007774,0.006425713,0.002353062,0.001139761
6.633333333,-0.117328085,-0.222646549,9.959475517,0.004107744,0.006397995,-0.000427382
6.641666667,0.09480378,-0.153421327,10.22894478,0.003507352,0.006031412,-0.001391675
6.65,0.05691519,-0.101448759,10.2049408,0.005036496,0.009072042,-0.000141269
6.658333333,0.163978919,-0.031250771,9.910270691,0.00375949,-0.002617047,-0.003129816
6.666666667,0.151311412,-0.019277068,9.929992676,0.006996599,-0.007475615,-0.002404697
6.675,-0.145567507,-0.093430437,9.943295479,0.00937626,-0.010022028,-0.008595036
6.683333333,-0.055555932,0.004956692,9.664006233,0.005086342,-0.00590199,-0.008701435
6.691666667,-0.177812517,0.160702929,9.690943718,0.004966756,-0.006117692,-0.012131446
6.7,-0.33005318,0.110568792,9.801762581,0.006868966,0.002070748,-0.007097409
6.708333333,-0.194249749,0.027996227,9.656280518,0.001780834,0.020293735,-0.001716682
6.716666667,0.22848323,0.096398823,9.752706528,0.001585473,0.019822095,-0.000962952
6.725,0.264576495,0.17922163,9.833456993,0.004505398,0.008763127,0.007076844
6.733333333,-0.274096936,-0.085691057,10.01313591,0.006360889,0.012851648,0.003610174
6.741666667,0.199571475,-0.104259841,10.06557369,0.001998549,0.015756149,0.006991233
6.75,0.305118501,0.038983289,10.25352859,0.005123448,-0.00541202,-0.003071699
6.758333333,0.323351413,-0.091363266,10.1453352,0.008964079,-0.014169783,0.001169714
6.766666667,-0.346977234,-0.292272478,10.08997345,0.008816997,-0.024003154,-0.005032919
6.775,-0.782027483,-0.241143793,9.942780495,0.006238398,-0.005655665,-0.004099474
6.783333333,0.048632178,-0.068130828,9.734754562,0.005260246,0.004388046,-0.002507519
6.791666667,0.286407292,-0.164093331,9.895650864,0.006879918,0.001172396,-0.004845604
6.8,0.209628254,-0.041994251,9.888933182,0.003593186,-0.002745798,-0.001008104
6.808333333,0.012796436,0.037302077,9.867926598,0.003512717,-0.00465829,-0.004801793
6.816666667,-0.160538182,0.027417002,9.898275375,0.005889697,0.003955746,-0.00418799
6.825,0.089775644,0.026544346,9.831489563,0.005999224,0.00283722,-0.01106098
6.833333333,0.168893293,0.081270672,9.702459335,0.004156473,0.000687791,-0.00929512
6.841666667,-0.155982047,0.11928796,9.656108856,0.006141386,-0.000962505,-0.009463657
6.85,-0.167433754,0.076263614,9.843127251,0.00529221,-0.002339874,-0.00937559
6.858333333,0.271342814,0.146740943,9.842310905,0.003630738,-0.004933227,-0.004309141
6.866666667,0.004506291,0.144551799,9.868977547,0.004463151,-0.004026604,0.000363677
6.875,-0.290105015,0.052745063,9.99307251,0.005260693,0.00610607,0.004181061
6.883333333,0.022924861,-0.113157973,9.989946365,0.00465583,0.006119481,0.002320874
6.891666667,-0.175566524,-0.230221406,10.00663376,0.002076336,0.009091934,0.010991015
6.9,-0.099746302,-0.314431548,10.10897064,0.004172566,0.014243771,0.018403148
6.908333333,0.167197913,-0.733631074,10.32957172,0.007142114,0.009783749,0.013686072
6.916666667,0.644228399,-0.743187904,10.28825569,0.007536415,-0.006733955,-0.020016342
6.925,0.166797459,0.026106237,10.10089779,0.006314173,-0.036412224,-0.046277342
6.933333333,-0.428701192,0.759220183,9.593019485,0.011202024,-0.027275137,-0.03151543
6.941666667,-0.562721312,0.521857142,9.35085392,0.014432426,-0.011838402,-0.008158712
6.95,0.011666287,-0.00057938,9.435523033,0.00994603,0.002431073,0.002043925
6.958333333,0.193820581,0.002453425,9.682167053,-0.003931382,0.004344682,-0.004236272
6.966666667,-0.161589876,0.505534351,9.654342651,-0.005140212,0.006456559,-0.000158704
6.975,-0.388370752,0.47283867,9.74454689,0.003831018,0.01490362,0.0077396
6.983333333,-0.048131481,-0.086191759,9.839007378,0.007740271,0.019666296,0.018934023
6.991666667,-0.039991472,-0.388256043,9.872268677,0.004259965,0.01713106,0.015274897
7,-0.116884604,-0.473239243,9.956886292,0.005008332,0.01357297,0.004075333
7.008333333,0.159694344,-0.387784362,10.09712315,0.001828669,0.012499819,-0.002163735
7.016666667,0.249534085,-0.072036281,10.07580948,-0.003363177,0.00497905,-0.005540772
7.025,0.085598074,0.245735914,10.10646629,0.002927525,-0.000814977,0.002416544
7.033333333,0.0527093,0.105525889,10.09067249,0.010115238,-0.005065554,0.004757759
7.041666667,0.191159874,-0.341433823,10.11892509,0.012348268,-0.005733899,0.002278851
7.05,0.275484592,-0.327099502,10.06129646,0.006630015,-0.013140668,-0.007509145
7.058333333,-0.166954502,-0.19240433,9.95600605,0.005999224,-0.013598896,-0.009930828
7.066666667,-0.123164594,-0.091742843,9.969846725,0.003838618,-0.008064831,-0.012709262
7.075,-0.013203912,0.094939277,10.00531101,0.004177485,-0.007311548,-0.012383361
7.083333333,0.290262371,0.282415688,9.911766052,0.008124961,-0.009335802,-0.005449126
7.091666667,0.004470527,-0.029419644,9.983265877,0.011114848,-0.009758715,0.000421347
7.1,-0.080262281,-0.230521604,9.876989365,0.010103168,-0.011248294,0.004577596
7.108333333,0.173270404,0.026272558,9.822647095,0.003538199,-0.011780734,-0.00321118
7.116666667,0.049969763,0.246815994,9.743723869,0.004772958,-0.007691989,-0.001185584
7.125,-0.532750905,0.126211911,9.971227646,0.006202186,-0.007885117,-0.002615259
7.133333333,-0.108851962,0.093501963,9.914262772,0.006866283,0.001450239,0.003874159
7.141666667,-0.110025033,0.060541663,9.985390663,0.005284163,0.006919035,0.004529091
7.15,-0.021422764,-0.063316964,9.882417679,0.003565022,0.007945692,0.007486122
7.158333333,0.04948318,-0.100597806,9.797663689,0.002251134,0.002692822,0.004629007
7.166666667,0.085447654,0.052208677,9.755941391,0.002799221,-0.000932999,0.008714622
7.175,-0.072343856,0.064726077,9.710148811,0.006702886,-0.001971503,0.010961957
7.183333333,-0.246222317,-0.205823049,9.686201096,0.006110093,0.004734959,0.009039628
7.191666667,0.027102122,-0.254548222,9.731356621,0.003430906,0.011401856,0.008496908
7.2,0.403205752,-0.087271839,9.784881592,0.004916463,0.008842928,-0.001494944
7.208333333,0.51507622,-0.121290758,9.88320446,0.00640336,-0.004773183,-0.005515736
7.216666667,-0.06732256,-0.213276312,9.918732643,0.007003752,-0.009443095,-0.007187266
7.225,-0.638283968,-0.177476346,9.939433098,0.004049181,0.000200503,-0.006338314
7.233333333,-0.319546103,-0.050098512,9.936257362,0.004466728,0.018476019,-0.007004422
7.241666667,0.550747454,-0.077050425,9.875729561,0.00446628,0.010414765,-0.006594922
7.25,-0.310140103,-0.103473023,9.953230858,0.005681817,0.00099581,-0.003267061
7.258333333,-0.638333917,-0.004599369,9.755646706,-0.000173903,0.016139722,-0.00253613
7.266666667,0.285140932,0.150903523,9.829873085,0.00179827,0.025494298,0.000484382
7.275,0.775918961,0.303430766,9.968237877,0.004717971,-0.003947475,-0.001350546
7.283333333,-0.368957937,0.093380362,10.00501728,0.004822581,-0.001660354,0.002346356
7.291666667,-0.41168189,0.018676072,10.01951599,0.004243648,0.007866116,0.003621797
7.3,0.537121296,0.097421721,10.04241276,0.004717747,0.010231695,0.005599783
7.308333333,-0.283738971,-0.0544689,10.0883913,0.005919202,-0.002405591,0.004508304
7.316666667,-0.606139064,-0.215114594,9.905979156,0.003004865,0.010879252,0.010710265
7.325,0.084854178,-0.03250967,9.998358727,0.002581729,0.014643213,0.012773191
7.333333333,0.246515587,-0.08869525,10.28457928,0.005784415,-0.002702434,0.009181122
7.341666667,0.026286697,-0.198312566,10.18569088,0.007177655,-0.006426384,0.006057341
7.35,0.532615006,-0.11510355,10.07786942,0.006531664,-0.013133068,0.003319143
7.358333333,-0.177791059,-0.115182228,10.31640911,0.010434434,-0.025448475,-0.005852815
7.366666667,-0.328580141,-0.261715382,10.02118301,0.007977432,-0.012956482,-0.004500032
7.375,0.365503132,-0.122885846,9.748738289,0.005384974,-0.010354636,-0.0038679
7.383333333,-0.453762054,-0.081549563,9.965906143,0.009061088,-0.018729273,-0.012012754
7.391666667,0.270642251,-0.017875094,9.601297379,0.010893557,-0.012697638,-0.005313221
7.4,0.181466982,-0.065052323,9.728441238,0.00899403,-0.031649993,-0.00379056
7.408333333,-0.481980026,-0.034684137,9.9880867,0.006012188,-0.014339217,-0.004322106
7.416666667,0.083981343,0.180859774,9.58926487,0.007509815,-0.00673619,-0.002724786
7.425,-0.573228419,-0.104660608,9.865323067,0.006900036,-0.00278201,-0.007307524
7.433333333,0.374687523,0.149072543,9.622570992,0.004547197,0.007931834,-0.002396203
7.441666667,0.332678616,0.180831179,9.879770279,0.009358826,-0.014163078,-0.005133507
7.45,-0.021744642,-0.044769645,9.928260803,0.009265392,-0.011105237,0.000892094
7.458333333,0.035099,-0.045906946,9.750305176,0.009496517,-0.019902787,0.000349819
7.466666667,-0.776404798,-0.120904401,9.904005051,0.006018448,0.001336464,0.007796377
7.475,0.563350916,0.037953176,9.474720001,0.004755076,0.003584692,0.012555252
7.483333333,-0.117549315,-0.211559594,10.02451611,0.006713614,0.00011601,0.008023032
7.491666667,1.054214358,0.050299,9.578378677,0.007758823,-0.006877013,0.006035436
7.5,-0.831725299,-0.324674606,9.98350811,0.010357988,-0.025672448,-0.00180654
7.508333333,-0.423691452,-0.273953885,9.634892464,0.001338699,0.017665064,-9.84E-05
7.516666667,-0.377884686,-0.141318724,9.90892601,0.003612857,0.013165478,-0.007183691
7.525,0.893497288,0.145080999,9.890034676,0.002751833,0.019210078,-0.00297156
7.533333333,0.160273984,-0.027989406,9.967308998,0.010489423,-0.017583479,-0.008459132
7.541666667,-0.713732123,-0.192661822,9.861488342,0.005364857,-0.002945631,-0.002692152
7.55,-0.449863762,-0.029906036,9.922451973,0.004608443,0.010801019,-0.004527303
7.558333333,0.692810178,0.176768094,9.917053223,0.000563063,0.023551859,0.004657619
7.566666667,0.445185989,0.214084402,9.964118958,0.007300818,-0.010241084,-0.004386034
7.575,0.08019767,0.099560432,9.727165222,0.007045774,-0.009257121,-0.000172562
7.583333333,-1.370555878,-0.24064295,10.04623222,0.006263879,0.002623976,-0.005885896
7.591666667,0.3490659,0.067129433,9.832076073,-0.001130596,0.022566102,-0.000268679
7.6,0.349809676,0.133243054,10.18832302,0.006155246,0.007264383,-0.002015314
7.608333333,0.508173823,0.070390955,9.923032761,0.007137867,-0.015726421,-0.005142448
7.616666667,-1.008751154,-0.40316999,10.07794762,0.00606807,-0.003565246,0.002416544
7.625,-0.039540917,-0.038475141,10.00921631,0.006282208,-0.000923611,0.003928029
7.633333333,0.851810753,-0.06391032,9.816095352,0.005201459,0.006677179,0.00492518
7.641666667,-0.044712421,-0.208777174,10.07229042,0.007801295,-0.014504181,0.001639566
7.65,0.08796566,-0.144330069,9.791941643,0.008870198,-0.018091775,-0.005175083
7.658333333,-0.311105758,-0.029519783,9.841461182,0.006600511,-0.003563011,-0.002507519
7.666666667,0.274711967,-0.1609817,9.746148109,0.009285956,-0.012602864,-0.006765249
7.675,0.406818002,0.044912703,9.431518555,0.010175145,-0.022949006,-0.000369266
7.683333333,-0.543651819,-0.082743868,9.788456917,0.008963183,-0.024128329,-0.007521662
7.691666667,-0.283245414,-0.014505967,9.666782379,0.008154465,0.000199162,-2.64E-05
7.7,0.578328788,0.047688004,9.316843033,0.006311267,-0.005517526,0.002031631
7.708333333,-1.602487206,-0.154279664,10.10165215,0.006081481,0.002839455,0.002119253
7.716666667,1.324849606,0.335783064,9.543287277,0.001481756,0.026496593,0.00294183
7.725,-0.227789432,-0.078903012,9.953774452,0.001831352,0.011985708,-0.000777425
7.733333333,-0.411631793,0.139108494,9.885515213,0.001465662,0.005656335,-0.004432081
7.741666667,0.275427371,0.116419673,9.973295212,0.00543102,0.00883935,-0.000539146
7.75,0.086177453,-0.140531912,10.0139513,0.003876618,0.014759224,0.00092607
7.758333333,-0.74837333,-0.160717234,9.945226669,0.003567257,0.000377983,-0.00316558
7.766666667,0.644750118,0.133522272,9.930641174,0.005300481,0.007805765,0.001746859
7.775,0.121190615,-0.23560749,10.17793083,0.008470084,0.000363677,0.000801342
7.783333333,-0.476658583,-0.272780836,9.907325745,0.005935295,-0.000845377,0.002438449
7.791666667,0.541899383,0.014026765,9.652746201,0.007479192,-0.010053545,-0.001293547
7.8,0.60190469,-0.139487669,9.709355354,0.009758714,-0.009041866,-0.002696845
7.808333333,-0.703655243,-0.355715841,9.683608055,0.00950993,-0.025510175,-0.011458857
7.816666667,-0.527400553,-0.11158435,9.713189125,0.004081144,-0.000210115,-0.005128589
7.825,0.808550239,0.123150498,9.807506561,0.00981102,-0.00044817,-0.003648621
7.833333333,-1.024115443,-0.289196581,10.18431091,0.006507299,0.004052086,-0.007126467
7.841666667,0.150438577,0.177368969,9.881321907,-0.000143951,0.023222825,-0.003022523
7.85,1.099957108,0.411345661,10.00148392,0.008969442,-0.009481987,0.000550992
7.858333333,-0.21397236,-0.026476728,9.872807503,0.012923626,-0.027799977,0.00765332
7.866666667,-1.049672604,-0.164987475,9.680006981,0.003227497,-0.004183072,0.008335522
7.875,0.233332887,0.182726532,9.699212074,0.004018333,0.001472815,0.008825491
7.883333333,0.169164732,0.090090059,9.804866791,0.006328702,-0.003113275,0.004323223
7.891666667,-0.262273282,-0.083087422,9.78972435,0.002082595,0.011577099,0.007068127
7.9,0.334874749,0.088731304,9.752850533,0.003229062,0.005754462,0.002684999
7.908333333,-0.17819877,-0.091148674,10.00419521,0.008346921,-0.000138139,0.007223031
7.916666667,0.491614968,-0.107922077,9.528953552,0.005381397,0.00377469,-0.000477452
7.925,-0.369200706,-0.267773509,9.496771812,0.00459749,0.003307743,0.005259575
7.933333333,0.155252457,0.035842896,9.77469635,0.004723112,0.005120989,0.003268402
7.941666667,-0.246422589,-0.304360628,9.897696495,0.006840801,0.008700987,0.00160179
7.95,-0.03625061,-0.201402605,9.869735718,0.002664658,0.007830799,1.56E-06
7.958333333,0.697094619,0.175409168,10.08821201,0.006561616,-0.002756527,-0.004528197
7.966666667,0.304124713,-0.057480417,9.925378799,0.012337539,-0.023496646,-0.006895342
7.975,-0.978158414,-0.458547294,9.831875801,0.001037386,0.000552781,-0.006885506
7.983333333,-0.092607856,0.171711147,9.94162178,0.003361836,-0.00096921,-0.008942843
7.991666667,-0.204750136,-0.010836557,10.05930042,0.004312717,0.003817383,-0.004255048
8,0.511728704,0.066800401,9.70936203,0.005295786,-0.00413479,0.000288796
8.008333333,-0.399178714,0.052022628,9.811475754,0.005040296,-0.006815765,0.005392126
8.016666667,0.236437559,0.274183005,9.62706852,0.006524511,0.00473943,0.012802474
8.025,0.129795864,-0.027316995,9.519647598,0.008082491,-0.005937755,0.01111619
8.033333333,-1.256647587,-0.179636493,10.04341412,0.003992404,-0.000180609,0.005489137
8.041666667,1.09203887,0.320197016,9.435637474,0.000623415,0.018560959,0.014335864
8.05,-0.080369346,-0.092979804,9.97309494,0.007475392,-0.001723835,0.009268073
8.058333333,0.469341099,-0.013397578,9.860337257,0.006972011,-0.010963522,0.011902555
8.066666667,-0.85837692,-0.332285315,9.9208498,0.003490811,0.011678581,0.008373522
8.075,1.095994353,0.099009655,9.870272636,0.005206823,-0.005321716,0.007932504
8.083333333,-0.738330781,-0.333529919,10.21555424,0.010137145,-0.016387614,0.004702772
8.091666667,-0.078430921,-0.245621473,9.612355232,0.003026323,-0.003858959,0.009761619
8.1,-0.322428703,-0.227331653,9.856481552,0.010211354,-0.021532292,-0.001924115
8.108333333,0.198441327,-0.164179206,9.827026367,0.003698691,0.003498858,0.000474546
8.116666667,0.480567127,-0.058732476,9.453673363,0.01018945,-0.02582892,-0.010087298
8.125,-1.301624537,-0.253024906,9.897925377,0.004878016,0.003293661,-0.00808182
8.133333333,0.907402515,0.169822797,9.720584869,0.004597267,0.014573248,-0.01013692
8.141666667,0.366525978,0.123493835,10.03192616,0.004240743,-0.005780169,-0.012489088
8.15,-0.19437851,0.142692059,9.901773453,0.008507413,-0.01526305,-0.003734455
8.158333333,-0.737128854,-0.042995833,9.770954132,0.005350327,-0.003115734,0.00218117
8.166666667,0.915163338,0.20633091,9.748051643,0.010890429,-0.024434563,0.007651531
8.175,-0.515540719,-0.018605987,9.754265785,0.012343125,-0.032321912,0.006586428
8.183333333,-0.466844589,-0.076485351,9.386610985,0.009538765,-0.015098311,0.00710635
8.191666667,0.103966571,-0.009456058,9.820059776,0.007871928,-0.006339654,0.005286622
8.2,1.041511178,0.180230185,9.827004433,0.009270309,-0.018093117,0.006466394
8.208333333,-0.527321875,-0.253704339,9.663933754,0.010544186,-0.020079373,0.006799225
8.216666667,-0.334996253,-0.171460792,9.590896606,0.005304057,-0.004144626,0.003378601
8.225,0.921336234,0.004062815,9.348687172,0.005258457,0.001325288,0.009163909
8.233333333,1.225360751,0.133832559,8.045291901,0.023852498,-0.094522145,0.005668629
8.241666667,-2.371875525,-1.097590208,8.55246067,0.000242303,0.043236258,0.018646122
8.25,0.037456382,-0.023520187,7.973264217,0.022295194,-0.076550635,-0.00293669
8.258333333,-3.194741488,-1.449086547,10.92172623,-0.03907375,0.199131379,0.014891104
8.266666667,9.353504181,2.486890078,8.129758835,0.02627038,-0.109689755,-0.007109032
8.275,-4.026584625,-1.300698638,7.717076778,0.036900177,-0.108882367,0.013984703
8.283333333,-4.424037457,-1.102526665,6.572266579,0.017691666,-0.036141534,0.000343337
8.291666667,-15.80499649,-4.634608269,17.01277733,-0.120092786,0.535445648,-0.031475225
8.3,26.80646324,7.531979561,13.63243103,-0.066381304,0.214530359,-0.043536908
8.308333333,-1.302151799,0.357993782,14.69579697,0.040854585,-0.076402213,-0.041146288
8.316666667,-4.169847965,1.204477191,12.00406933,0.01527378,-0.046185022,0.015596107
8.325,2.033243656,-0.157711923,9.550728798,0.055893439,-0.114597511,0.015717257
8.333333333,-1.699140906,-0.497336417,8.437007904,0.007894283,-0.139078586,0.017890384
8.341666667,-4.390902042,0.206339791,6.555948257,0.036299123,-0.125036628,0.013397499
8.35,-5.310982227,-1.597974777,7.611905575,0.027570858,-0.021433048,0.032178183
8.358333333,0.672108769,-1.960690379,9.959840775,-0.028814338,0.054368097,0.014574144
8.366666667,4.067271233,2.733265877,11.447896,-0.015578893,-0.01130507,0.021828469
8.375,1.792059302,-0.60242945,10.05224705,0.049234587,-0.03777327,0.018365594
8.383333333,1.84656322,-1.427379847,8.500795364,0.007675672,-0.040046091,0.013542792
8.391666667,0.309899688,0.16262798,8.451699257,-0.002774857,-0.036443741,0.00146298
8.4,-0.117736891,0.29185465,7.299969196,0.028914252,-0.010607666,0.007930939
8.408333333,-0.770690501,-2.177818775,7.813728809,0.013145808,-0.00066745,-0.006783131
8.416666667,-2.90369153,-0.483053625,9.552485466,-0.027825903,0.058166251,-0.021735703
8.425,0.631136417,1.09595716,9.70545578,-0.006959717,0.07073112,-0.014628013
8.433333333,0.029096521,-0.399771482,11.21645069,0.004594584,0.06085259,-0.009855724
8.441666667,1.164870262,0.394105047,10.6198225,-0.020393202,0.038780032,-0.009448459
8.45,-0.042287588,1.299878955,10.33506966,0.00214563,0.013373805,-0.000206985
8.458333333,-0.350982845,-0.202589974,10.21773624,0.01583908,0.019117764,0.008255722
8.466666667,0.508252919,-0.371618569,9.828528404,-0.00414999,-0.002452978,0.005797156
8.475,-1.121501207,0.597283661,10.04046631,0.00111875,-0.016788172,0.004665666
8.483333333,-0.542643249,0.040213283,9.86692524,0.016446845,0.008770058,0.018652156
8.491666667,0.522250533,-0.495355844,10.32082272,0.005756027,-0.013415605,0.014414991
8.5,0.931069076,0.580311298,9.914616585,0.003658009,-0.036805402,0.010273943
8.508333333,-0.262700975,-0.06692709,9.299448013,0.028118497,-0.057782452,0.011211858
8.516666667,-0.617640853,-1.088505387,9.602319717,0.009359719,-0.008289252,0.002649458
8.525,0.35522449,-0.0283038,9.257616997,-0.004259518,-0.008389838,-0.005722722
8.533333333,0.29462561,0.207010433,9.289640427,0.009007889,-0.000434535,-0.00339313
8.541666667,0.199049309,-0.506700218,9.608027458,0.012366596,-0.005048566,-1.97E-05
8.55,-0.726135314,-0.533208489,9.722853661,-0.005889026,0.011213199,-0.003224592
8.558333333,0.785568297,0.605323732,9.577894211,0.005591512,0.011138097,-0.002224982
8.566666667,-0.350417763,-0.375188082,9.78025341,0.009089923,0.006288243,-0.000248114
8.575,-0.007074162,-0.117871702,9.310233116,-0.001392569,0.003750102,-0.008367038
8.583333333,-0.579594851,0.418934852,9.650029182,0.002874996,0.005290869,-0.004096791
8.591666667,0.286435604,0.022095133,9.493889809,0.008431861,0.016500268,0.001834257
8.6,0.074811623,-0.078509189,9.641517639,-0.000284326,-0.003637221,0.00327265
8.608333333,-0.191166863,0.417497307,9.932243347,0.000101034,0.01285053,0.003239791
8.616666667,0.914283514,0.252860159,9.326498985,0.012714849,-0.009695678,0.012584309
8.625,-0.413426995,-0.299232394,9.934417725,0.005106236,-0.016342906,0.009745749
8.633333333,-0.455214113,0.089460202,9.934440613,0.000249455,0.012478136,0.014067856
8.641666667,0.278274208,-0.011916636,9.439005852,0.007768435,-0.002754068,0.008895008
8.65,-0.703603745,-0.427933544,10.07668209,0.000597039,0.015390461,0.011556536
8.658333333,0.634478629,0.066507131,9.61648941,0.000681979,0.006411854,0.002061137
8.666666667,-0.358121395,-0.249283731,9.694998741,0.009523789,-0.01190278,0.003464436
8.675,-1.209302545,-0.583350122,9.867468834,0.002309474,0.009541894,-0.003349319
8.683333333,1.088283539,0.001902656,9.79921627,-0.001290641,0.017002535,-0.006140716
8.691666667,0.073953241,-0.013382969,10.05451488,0.010642313,-0.017300045,-0.008273157
8.7,-0.003268339,-0.360474914,9.664399147,0.004687125,-0.001882986,-0.006231468
8.708333333,0.382498264,0.08707156,9.812999725,0.005931496,-0.012921389,-0.00505639
8.716666667,0.10835842,0.049790941,9.647661209,0.011707416,-0.017873169,-0.007459075
8.725,-0.090354711,-0.05177943,9.351576805,0.009108922,-0.008319204,-0.004929203
8.733333333,0.683640122,0.345603913,9.320848465,0.006602298,-0.020392309,-0.006318643
8.741666667,-1.520043492,-0.108630225,9.558837891,0.011870815,-0.018977384,-0.00273641
8.75,0.073159277,-0.028768735,9.465127945,-0.000523946,0.027175666,0.004944627
8.758333333,0.703596532,0.384315103,9.810073853,0.002514001,-0.008957595,-0.000513664
8.766666667,-0.668404162,-0.054540671,9.666845322,0.003481646,-0.002793856,0.010396211
8.775,0.068946339,0.019770788,9.370903969,0.003395812,0.01237263,0.012424936
8.783333333,-0.093881063,-0.048045646,10.02274227,0.000401677,0.012345585,0.016384707
8.791666667,0.250106305,-0.004770946,9.620652199,0.003748761,0.012379114,0.015830362
8.8,0.036121856,-0.203412548,9.755290031,0.00320738,0.006864718,0.015234439
8.808333333,0.006859576,-0.182883888,9.901072502,0.006443818,-0.007063433,0.007411687
8.816666667,-0.455378592,-0.342749923,9.677389145,0.005215765,0.002346133,0.007421523
8.825,0.878476501,-0.101656169,9.360390663,0.011587159,-0.023850707,0.000433194
8.833333333,-1.474537373,-0.720555723,9.736448288,0.006192127,-0.002585753,-0.001666612
8.841666667,1.047412276,0.001859739,9.586705208,0.0030147,0.01025293,-0.005722274
8.85,0.70490551,-0.060327079,9.898240089,0.010365141,-0.018558498,-0.005857732
8.858333333,0.09918984,-0.003176434,9.566589355,0.012461371,-0.036120071,-0.009026889
8.866666667,-1.277819633,-0.360245496,9.599431038,0.004922497,0.008127866,-0.00321118
8.875,1.107567668,0.343701243,9.129473686,0.007024316,-0.011073048,-0.007738036
8.883333333,-0.765904963,-0.136211589,9.544081688,0.002977148,0.005563348,-0.007658907
8.891666667,0.305626661,0.378785938,9.159723282,0.001939538,0.013200349,-0.004455774
8.9,-0.403334498,-0.00626589,9.72377491,0.001507909,0.015106359,-0.001615201
8.908333333,-0.246787384,0.11983873,9.712359428,0.000112657,0.014958832,0.000654932
8.916666667,0.265999913,0.143321514,9.658734322,-0.001908468,0.019133185,0.003066111
8.925,0.501142681,0.263775766,9.97192955,0.00532954,0.008305569,0.009663269
8.933333333,-0.526599824,-0.297801167,9.844522476,0.006625321,-0.007423534,0.009856171
8.941666667,-0.329960644,-0.056249958,9.713124275,0.001098408,0.013021752,0.020881834
8.95,0.2759206,-0.174793586,9.930907249,0.007925575,-0.010123063,0.009239017
8.958333333,-0.01989921,-0.247288093,9.795231819,0.007415934,-0.011613983,0.008221076
8.966666667,-0.182125688,-0.309668034,9.649170876,0.006802577,-0.0077358,0.001477733
8.975,0.393620938,-0.072300933,9.801891327,0.009351226,-0.012984646,0.001584131
8.983333333,-0.033592165,-0.323090374,9.636481285,0.010792971,-0.027933645,-0.004282318
8.991666667,-0.399879694,-0.265449166,9.424571991,0.005621241,-0.002387709,-0.000553451
9,0.528165936,0.001695224,9.511006355,0.006601851,0.003847112,-0.0051344
9.008333333,0.44236055,0.00645176,9.606648445,0.009933735,-0.022881501,-0.004615819
9.016666667,-1.075787544,-0.234913662,9.190594673,0.005959884,-0.007858739,-0.002866949
9.025,0.100382999,0.112378314,9.2122612,0.003658232,0.018019801,0.004017663
9.033333333,0.523595273,0.157577127,9.808822632,0.00421973,0.007571285,-0.000306231
9.041666667,-0.661423385,-0.097521864,9.716064453,0.00630769,-0.004227331,-0.004111544
9.05,-0.110389836,0.242002159,9.661252975,-8.92E-05,0.024727827,-0.001078515
9.058333333,0.513223648,0.169086054,10.00463867,0.004567538,0.008282546,0.002563847
9.066666667,-0.148843557,0.041808426,9.723782539,0.009246615,-0.014317756,0.002024925
9.075,-0.305426389,0.004263095,9.326992035,0.004725571,-0.005429455,0.000391842
9.083333333,-0.351733774,-0.171975389,9.727614403,0.003142557,0.014364475,0.006521829
9.091666667,0.981148303,0.101269953,9.774739265,0.007036387,-0.01172977,0.004995144
9.1,-0.431459486,-0.240242541,9.487974167,0.009631081,-0.017114965,0.010573021
9.108333333,-0.492737889,-0.343772799,9.538208961,0.004055439,0.007237113,0.01046394
9.116666667,0.866366446,-0.041686602,9.341213226,0.00791261,-0.006037447,0.002632023
9.125,0.113200948,-0.251951724,9.397603989,0.006195927,-0.002272816,0.000415088
9.133333333,0.131147444,-0.18769072,9.419657707,0.008279864,-0.014036562,-0.004132108
9.141666667,-0.427711785,-0.31878075,9.540355682,0.00375949,0.000274267,-0.005315009
9.15,-0.45576486,-0.22785382,9.32827282,4.43E-05,0.017284847,-0.009409789
9.158333333,0.506685913,0.065026492,9.913361549,0.000336631,0.017916087,-0.006336749
9.166666667,0.395988524,0.109180994,9.805245399,0.005081872,0.001450463,-0.001343841
9.175,-1.368632078,-0.308459193,9.777972221,0.002204864,0.004123614,-0.001409557
9.183333333,0.747030437,0.380608648,9.75538063,-0.00089187,0.029320176,0.006774413
9.191666667,-0.363056898,-0.086198919,10.06791401,0.009917642,-0.017626394,0.000230903
9.2,0.235729098,0.262123078,9.563000679,0.004009393,-0.004414646,0.002056219
9.208333333,-1.049222112,-0.077944644,9.875216484,0.009854606,-0.012193812,-0.000978598
9.216666667,0.483653814,0.089017421,9.446515083,0.00350467,0.010949438,0.006038565
9.225,-0.344881475,0.019892056,9.91906929,0.005526689,-0.003912605,0.003325849
9.233333333,1.318190217,0.341090471,9.310426712,0.009642257,-0.012571569,0.004012969
9.241666667,-0.834722281,-0.34945935,9.786761284,0.01097045,-0.025446687,0.002908302
9.25,0.50931102,0.077901609,9.333272934,0.002994583,-0.003218333,0.009210403
9.258333333,-0.59527415,-0.425458014,9.243355751,0.00929758,-0.015026785,0.008433427
9.266666667,-0.136111453,-0.306277573,9.465099335,-0.002229005,0.022068534,0.003539093
9.275,1.213265181,-0.006108528,9.35033226,0.008224206,-0.013555534,-0.002194582
9.283333333,-0.922294736,-0.509382546,9.42626667,0.005843202,-0.009193193,-0.005400397
9.291666667,0.24982734,-0.198391259,9.561305046,0.004000898,0.017063331,-0.007761729
9.3,0.325640321,-0.040163212,10.13707352,0.006415207,-0.000672591,-0.008904172
9.308333333,-0.230421931,-0.227217034,9.358651161,0.007482098,-0.005146024,-0.014505967
9.316666667,-0.618577838,-0.05980492,9.861495972,0.004529315,0.010054886,-0.00670892
9.325,1.041926026,0.226723656,9.846446037,0.007463769,-0.001041186,-0.003915735
9.333333333,-0.318787903,0.0033976,9.439814568,0.010559162,-0.025031378,-0.000616933
9.341666667,-0.591203928,0.04206587,9.549481392,0.009429236,-0.01240549,-0.000254149
9.35,0.016551679,0.08637058,9.708346367,0.007480086,-0.005025766,0.002979159
9.358333333,-0.270019829,0.04974087,9.725090981,0.002219393,0.000504946,-0.00279855
9.366666667,0.284705043,0.341863155,9.389586449,0.005125236,0.002516236,0.004977261
9.375,-0.430951625,-0.185458913,9.675264359,0.004624984,0.003897182,0.003279802
9.383333333,0.362727731,0.063581161,9.434263229,0.001872927,0.007032362,0.007436499
9.391666667,-0.073266871,-0.052823942,9.570153236,0.003721714,0.002410955,0.004556361
9.4,0.547492743,-0.063517004,9.574280739,0.007366758,-0.008753293,0.005805203
9.408333333,-0.115983352,-0.217367738,9.411095619,0.007382183,-0.017017286,0.005095508
9.416666667,-0.566397846,-0.297679871,9.369087219,0.005757815,3.69E-05,0.010254718
9.425,0.139594883,-0.337900311,9.706214905,0.003835042,0.011496185,0.001921209
9.433333333,0.477180451,-0.113057837,9.491393089,0.003692432,0.003162674,-0.003222356
9.441666667,0.009205943,-0.199399665,9.512129784,0.00498285,0.003502658,-0.01065036
9.45,0.11705593,-0.140574783,9.614508629,0.006805707,-0.000334842,-0.011062319
9.458333333,-0.398885429,-0.257681161,9.488725662,0.003078629,0.004415763,-0.013360618
9.466666667,-0.3522847,-0.087250717,9.665787697,0.0021805,0.011304398,-0.013525134
9.475,0.180988386,-0.026587117,9.684713364,0.002382121,0.013819517,-0.008674612
9.483333333,-0.342807144,0.061163664,9.719546318,0.00193775,0.013553967,-0.004859016
9.491666667,-0.029605605,0.111806124,9.703766823,0.002334733,0.012226668,0.000702096
9.5,0.125761315,0.120883085,9.827070236,0.003557199,0.008133677,-0.000558369
9.508333333,0.260585606,0.27609247,9.813771248,0.004478127,-0.001078738,0.002421238
9.516666667,-0.06284488,0.063710369,9.816776276,0.009139545,-0.010970897,0.000886953
9.525,-0.142749384,-0.055119611,9.570998192,0.006782236,-0.016692501,0.005466113
9.533333333,-0.267480552,-0.085884184,9.56255722,0.007292324,-0.007381064,0.002678293
9.541666667,-0.143464029,-0.141776666,9.57608223,0.007996209,-0.002713163,0.007608614
9.55,-0.2472094,-0.246022031,9.463540077,0.00514133,0.004252589,0.004527079
9.558333333,0.05177943,-0.107078061,9.54732132,0.002939819,0.00971982,0.005979777
9.566666667,0.279332817,-0.160767302,9.648118973,0.003362731,0.006007495,0.00619928
9.575,0.189428747,-0.174872711,9.671508789,0.004231354,0.002248675,0.002727022
9.583333333,0.27802366,-0.087107234,9.675128937,0.004844263,-0.002440014,-0.002177594
9.591666667,0.043761093,-0.222818211,9.715527534,0.005991401,-0.004193354,-0.004649348
9.6,0.207511127,-0.148664683,9.624121666,0.007023422,-0.014192136,-0.013095068
9.608333333,-0.318694919,-0.184929594,9.568873405,0.010304342,-0.01261717,-0.013722731
9.616666667,-0.076513961,-0.153950632,9.534518242,0.010222532,-0.012212139,-0.011587607
9.625,-0.446988314,-0.279468715,9.900006294,0.005815486,-0.000215032,0.001303382
9.633333333,0.247803092,-0.303774089,9.963180542,0.004750159,-0.003422636,0.002429955
9.641666667,2.032231331,0.319656193,8.937831879,0.01514503,-0.041631791,-0.029127723
9.65,-3.004360437,-0.490865558,9.247613907,0.01852855,-0.028150462,-0.020972138
9.658333333,0.76569742,0.356247246,8.659337997,0.002621517,0.023228861,-0.003949935
9.666666667,1.611135244,0.638984859,8.76395607,0.006007494,-0.002671364,-0.005468126
9.675,-2.518780708,-0.770554304,9.649528503,-0.000294161,0.028528,0.006610793
9.683333333,1.490316272,0.059379771,9.738432884,-0.018816003,0.072831156,0.000371501
9.691666667,2.296548367,1.270467043,9.014056206,0.006542841,-0.029061111,-0.033094866
9.7,-2.97505331,-0.368743718,9.269432068,0.009016384,0.011700935,-0.004062369
9.708333333,0.063173957,0.044906087,8.876730919,-0.008168994,0.051412179,0.006769943
9.716666667,-0.457679391,-0.17740944,9.556393623,-0.005565135,0.04968231,0.01268065
9.725,0.363753349,-0.426786929,9.928062439,-0.007785871,0.050175636,0.00749104
9.733333333,-0.306847185,-0.478301167,11.02548027,-0.01270725,0.040780599,0.008263323
9.741666667,1.574927211,0.795281708,9.9233675,-0.001812128,0.009290202,-0.00398704
9.75,-1.406492114,-0.520812809,10.22171307,0.011700935,-0.000783236,0.00806729
9.758333333,-0.10867314,-0.310669422,10.23342896,0.003229956,0.017680937,0.006920823
9.766666667,-0.021580128,-0.51728642,9.874585152,0.008954913,0.00046717,-0.000520369
9.775,-0.085719667,-0.55801475,10.15243816,0.011450809,-0.014685235,-0.013195209
9.783333333,-0.515765488,-0.419205904,10.36650276,0.009878077,-0.029009477,-0.025053507
9.791666667,-0.047487725,0.408641905,10.2078867,0.009015489,-0.018833436,-0.012639074
9.8,0.444664478,0.245156392,10.23170471,0.021037183,-0.04402978,-0.00660878
9.808333333,-1.028137565,-0.30608654,9.842375755,0.015985042,-0.032311187,0.004624984
9.816666667,1.486582994,0.233159319,9.061828613,0.018209354,-0.033127729,-0.000251914
9.825,-0.60231179,-0.35479936,9.284223557,0.023012038,-0.055236716,-0.010377212
9.833333333,0.006664367,-0.007992746,8.697193146,0.011601466,-0.032466534,-0.016195604
9.841666667,-0.722701788,0.20987156,9.400588036,0.009786878,-0.022941181,-0.010231024
9.85,-1.049286485,-0.488605827,10.427351,-0.001634201,0.033181593,0.011187047
9.858333333,5.150666714,1.197721243,8.703011513,0.01030859,-0.030310849,-0.004975027
9.866666667,-2.900282383,-0.832487702,9.459464073,0.028531577,-0.074338605,-0.01477867
9.875,-0.292730093,-0.329116613,8.700388908,0.012000237,-0.016672608,-0.003956193
9.883333333,0.534338713,0.092629179,8.900531769,0.003041747,0.006906518,-0.001363064
9.891666667,-1.178824306,-0.283467174,9.181038857,0.005720039,0.000572674,-0.000268232
9.9,0.236419752,-0.252338737,9.171034813,-0.003911488,0.038391548,9.79E-05
9.908333333,0.955433846,0.295140594,10.16437626,0.000800671,0.014723234,-0.005567147
9.916666667,0.394622356,0.132906973,9.750491142,0.006318196,0.001322382,-0.007876845
9.925,-0.970068574,-0.23625125,9.576218605,0.002182735,0.010709372,-0.00224644
9.933333333,0.094297446,-0.01783205,9.372645378,-0.003054711,0.035964051,0.003915288
9.941666667,0.46766004,0.033954546,9.574509621,0.001836716,0.011978554,-0.0008798
9.95,-0.972972631,-0.56142664,10.02631187,0.000613133,0.013349666,-0.004552338
9.958333333,0.262559414,0.120046161,9.766970634,-0.001225372,0.020293288,-0.001690753
9.966666667,-0.466916144,-0.137527704,10.25448036,0.003295002,0.00670959,-0.00318838
9.975,1.115671873,0.459663153,9.884814262,0.010405376,-0.010271483,0.001734341
9.983333333,-0.498374343,-0.205501184,9.750712395,0.011712334,-0.017627961,0.001464098
9.991666667,-1.027069569,-0.366404325,9.585783005,0.007058516,0.005868462,-0.000542722
10,1.040824533,0.071757324,9.451652527,0.00453915,0.00496698,-0.002368486
10.00833333,0.548658848,0.054755013,9.545555115,0.009195204,-0.010555362,-0.010303224
10.01666667,-0.977135599,-0.357320279,9.669477463,0.01186925,-0.020862834,-0.010002134
10.025,0.269118577,0.085290499,9.598607063,0.00520794,0.005097519,-0.007700036
10.03333333,0.552643061,-0.015950901,9.947902679,0.010580619,-0.008240969,-0.002220064
10.04166667,0.035754997,-0.269869894,9.810647964,0.01301773,-0.030170476,-0.00188008
10.05,-0.762278557,-0.326570064,9.443189621,0.011480762,-0.020565096,-0.005743957
10.05833333,0.012825051,-0.152119517,9.590954781,0.002283322,0.018020918,1.72E-05
10.06666667,0.665128589,0.114638612,9.816361427,0.012451761,-0.018397337,-0.01093558
10.075,-0.432689786,-0.111505672,9.343852043,0.011067461,-0.019812481,-0.00822577
10.08333333,-0.79173398,-0.248139575,9.367605209,0.005689864,0.010237731,-0.006286008
10.09166667,0.281070977,-0.017445784,9.832476616,1.59E-05,0.020683118,-0.004179496
10.1,1.179568172,0.321606129,9.591333389,0.008678411,-0.010638068,-0.010985427
10.10833333,-1.442012906,-0.466644198,9.647540092,0.004050521,0.002560495,-0.00704868
10.11666667,0.783672631,0.328673124,9.477889061,0.001203019,0.021474179,0.001773458
10.125,0.077086173,0.067901962,10.02500343,0.01051468,-0.01355978,0.00074926
10.13333333,-0.803292871,-0.271486163,9.312221527,0.005072931,-0.002372956,0.005521772
10.14166667,-0.242896244,-0.109431341,9.337213516,0.001066444,0.02534096,0.002827385
10.15,1.236869574,0.339624137,9.951571465,0.003139651,0.008024597,0.005239905
10.15833333,-0.248353854,-0.231530368,9.735434532,0.00758805,-0.016023263,-0.006119705
10.16666667,-0.610581458,-0.168692768,9.216631889,0.005038955,0.001426322,-0.005013249
10.175,0.749596477,0.171546638,9.543001175,0.006076117,0.002349486,-0.001266947
10.18333333,0.008190005,-0.323480159,9.948760986,0.005744403,0.002518919,-0.005936413
10.19166667,-0.376590043,-0.271099895,9.537064552,0.003849795,-0.000963846,-0.006138034
10.2,-0.299668342,-0.184192866,9.94405365,0.004651136,0.008534236,-0.003713443
10.20833333,0.01084371,-0.320053965,9.92478466,0.003695338,0.006680309,-0.002336297
10.21666667,-0.386668384,-0.134609357,9.565446854,0.000115116,0.012367044,-0.008367933
10.225,0.733087718,0.282945007,9.593400002,0.008024373,-0.004007828,-0.005542559
10.23333333,-0.817476988,-0.483117312,9.95468998,0.006315067,0.000143504,-0.011647735
10.24166667,0.379479736,0.070555434,9.63253212,-0.0008494,0.016215272,-0.005850132
10.25,0.176718131,0.197125196,9.888339996,0.012249914,-0.013953409,-0.013436615
10.25833333,-0.167369425,-0.176167384,9.79061985,0.007509145,-0.001105338,0.000495781
10.26666667,0.519074678,0.249970406,9.538115501,0.006234374,-0.004993132,-0.00367388
10.275,-0.226523489,0.090311885,9.912175179,0.013302948,-0.017747992,0.002507519
10.28333333,0.338787258,-0.093623564,9.518330574,0.013797389,-0.020414441,0.007798836
10.29166667,-0.666802347,-0.220057219,9.530891418,0.009873383,-0.025449369,0.005105565
10.3,0.209749967,0.074318036,9.475749969,0.011824768,-0.018750285,0.00377469
10.30833333,-0.405666322,-0.316370249,9.517186165,0.011536419,-0.010400235,0.003544458
10.31666667,0.045685209,0.007939655,9.391181946,0.003537304,0.001626154,-3.49E-05
10.325,0.647375226,0.147913635,9.550754547,0.007496404,0.001764294,0.002578824
10.33333333,-0.328615904,-0.38716194,9.335968971,0.009446224,-0.006884165,-0.005316351
10.34166667,-0.622812331,-0.425494015,9.512980461,-0.002118136,0.02193218,0.003387095
10.35,0.649828434,0.154400796,9.57616806,0.002829173,0.012038013,-0.00931792
10.35833333,-0.241530076,-0.44890523,9.871325493,-0.00108142,0.026840821,-0.000978598
10.36666667,0.359909594,0.046629384,9.970283508,0.003240015,-0.004778993,-0.007992409
10.375,-0.272115439,-0.145395547,9.769919395,0.005058178,0.006903165,-0.00467036
10.38333333,-0.079389401,-0.162519738,9.621138573,0.002611012,0.017187167,-0.003867453
10.39166667,0.882853925,0.12795721,9.725319862,0.009056394,-0.016118486,-0.014011526
10.4,-0.654828489,-0.078244947,9.738874435,0.007814482,-0.006434877,-0.013480428
10.40833333,-0.172776923,-0.224556357,9.682653427,0.002326463,0.010329601,-0.008892102
10.41666667,0.679054916,0.406052858,9.819235802,0.010319764,-0.019764421,-0.0128132
10.425,-0.877124548,-0.350317627,9.673247337,0.008393415,0.000709026,-0.01310535
10.43333333,-0.619278848,-0.181245893,9.956377983,-0.000718861,0.02000494,0.000947528
10.44166667,1.009738207,0.201838925,9.822706223,-0.003667173,0.028441716,0.002295392
10.45,0.547957838,0.232023925,9.396325111,0.01184578,-0.021786668,0.001703941
10.45833333,-1.333382964,-0.563129008,9.762850761,0.006525628,0.002369826,-0.003531716
10.46666667,-0.042058717,-0.064561561,9.554510117,0.003077288,0.010634715,0.002459461
10.475,0.226394638,-0.088487819,9.776376724,0.001090809,0.013624827,-0.00301023
10.48333333,0.292422682,0.026687099,9.926523209,0.010232142,-0.012081822,-0.006065388
10.49166667,-0.927230179,-0.593471348,9.798987389,0.00278268,0.001934621,-0.010977379
10.5,1.02802074,0.358078301,9.633198738,0.005077625,0.003266614,-0.006532334
10.50833333,0.218054414,-0.149472952,10.09416389,0.011658465,-0.016976379,-0.01003678
10.51666667,0.51412487,0.00417726,9.36154747,0.012339996,-0.023169847,-0.008698304
10.525,-0.594848812,-0.243247107,9.692858696,0.013117869,-0.026469098,-0.006421018
10.53333333,0.020578729,-0.126469418,9.675829887,0.010729714,-0.004627666,-0.003155969
10.54166667,-0.178176999,-0.204807714,9.344603539,0.005978883,-0.006227892,-0.006408054
10.55,-0.340153456,0.056993853,9.685013771,0.006527194,0.00093054,-0.005607382
10.55833333,0.326577365,0.025070714,9.64590168,0.003187933,0.008474332,-0.010616385
10.56666667,0.020607578,-0.052623548,9.563014984,0.005300927,-0.001773905,-0.010211131
10.575,-0.854342639,-0.161132395,9.625359535,0.000666332,0.012283892,-0.010814653
10.58333333,0.211309329,-0.027702751,9.754712105,0.001189384,0.023599244,-0.008000009
10.59166667,0.758308649,0.181660756,9.877339363,0.004486845,-0.00084493,-0.012327478
10.6,-0.394114494,-0.083566666,9.742007256,0.00372909,0.00019648,-0.005516184
10.60833333,-0.271657825,-0.102493189,9.669054985,0.00401431,0.012830637,-0.001683601
10.61666667,0.677238405,0.071428284,9.96393013,0.004521044,0.000301761,0.000261079
10.625,-0.376904815,-0.270670533,9.838305473,0.008000009,-0.015163134,-0.006155916
10.63333333,0.227639228,-0.046536397,9.422024727,0.007431581,-0.00044437,-0.004076674
10.64166667,-0.336505502,-0.236816332,9.993844986,0.011784981,-0.013875176,-0.009788219
10.65,-0.032953344,-0.290927887,9.65969944,0.004142167,0.007070809,-0.010833427
10.65833333,0.060220182,-0.059948318,9.45527935,0.008551449,-0.007231525,-0.010704679
10.66666667,-0.693074703,-0.381132096,9.836853981,0.004302659,0.012225327,-0.009941559
10.675,0.352104902,-0.090662867,9.547262192,-0.005358821,0.033074748,-0.006312831
10.68333333,0.542335689,0.149616018,9.897631645,0.004731607,-0.001509474,-0.009844326
10.69166667,0.237038061,-0.029727215,9.806468964,0.004892993,0.003421295,-0.000785025
10.7,-0.344144732,-0.254841477,9.760304451,0.004987544,-0.002092654,-0.003127581
10.70833333,-0.156518981,0.065455943,9.806440353,0.004321658,-0.00248606,-0.006290032
10.71666667,-0.176854044,-0.054840848,9.733616829,0.008602635,-0.000756413,-0.006101823
10.725,-0.027202262,-0.016515914,9.737623215,0.005659464,-0.002494554,-0.00867014
10.73333333,0.354895443,0.19983612,9.855287552,0.008622977,-0.010803925,-0.00789674
10.74166667,0.114867508,0.073438242,9.683303833,0.013548828,-0.023985946,-0.005999224
10.75,-0.192840651,-0.027781641,9.686366081,0.012025271,-0.020128548,-0.00674826
10.75833333,-0.598757327,-0.289339662,10.18873882,0.000295725,0.017135307,0.003078629
10.76666667,1.14617157,0.308137327,9.689069748,0.010574362,-0.016181968,-0.002948313
10.775,-0.798292994,-0.376089483,10.02143955,0.011432703,-0.01303874,0.004589667
10.78333333,-0.100161262,-0.154766068,9.925492287,0.00880895,-0.012690486,0.000122269
10.79166667,-0.289454103,-0.272916734,9.925385475,0.008584083,-0.010485173,-0.00155172
10.8,0.18666774,-0.115353897,9.673376083,0.005616994,-0.006597604,-0.005360609
10.80833333,-0.671380162,-0.464705914,9.909505844,0.006452089,-0.008799786,-0.00901303
10.81666667,0.926843941,0.121963128,9.584859848,0.006298526,-0.007883999,-0.009844325
10.825,-0.46536395,-0.290963352,9.972143173,0.010216719,-0.015256568,-0.012223315
10.83333333,0.251780063,0.002117241,9.648841858,0.003216992,0.000995139,-0.009807891
10.84166667,0.522136092,0.061600283,9.696250916,0.010810629,-0.018940506,-0.0077244
10.85,-0.407993346,-0.22006309,9.820780754,0.011964697,-0.024582092,-0.010722114
10.85833333,0.008697953,-0.052316032,9.41207695,0.008249241,-0.01172664,-0.002712269
10.86666667,0.593736053,0.2265663,9.523302078,0.00987003,-0.015006441,-0.005359492
10.875,-0.379365325,-0.19464317,9.954918861,0.01121387,-0.017748217,-0.004645549
10.88333333,-0.408784658,-0.145960853,9.46210289,0.004620291,0.001015257,-0.008641753
10.89166667,-0.033703864,0.119252153,9.731628418,0.004885392,-0.000741213,-0.003804418
10.9,0.07386741,0.063367039,9.767536163,0.001877398,0.008517472,-0.005242141
10.90833333,-0.277430236,-0.131404966,9.300492287,0.003922665,0.010149215,0.00116569
10.91666667,-0.783201098,-0.234099537,10.18821049,-0.005824202,0.03953399,0.004988438
10.925,3.562952757,0.964439273,9.15562439,0.004256613,0.010043262,0.005691652
10.93333333,-2.932798862,-1.109066725,10.06760883,0.014179396,-0.035752151,-0.004487963
10.94166667,0.250778675,0.221637711,9.036400795,-0.000642415,0.015290768,0.008944408
10.95,-0.179371849,-0.268360376,9.708889961,0.00216977,0.017427232,0.00096094
10.95833333,0.885371864,0.05002676,9.516665459,0.000222856,0.019443887,0.00531121
10.96666667,-0.115067787,-0.200909048,9.791991234,0.004730041,-0.000680861,-0.007096068
10.975,-0.17696853,-0.277902067,10.10955048,-0.002752504,0.022026512,-0.003237109
10.98333333,0.701171994,0.022645965,9.953152657,0.00332406,0.001226489,-0.011390456
10.99166667,0.381997585,0.127742618,9.902560234,0.009105123,-0.017270764,-0.009569834
11,-1.067426324,-0.465621352,9.943024635,0.009233426,-0.002081254,-0.008240746
11.00833333,0.265763879,-0.160438269,9.439900398,0.00182621,0.010832087,-0.006207103
11.01666667,-0.771319687,-0.3552531,9.96482563,0.006649015,-0.003901652,-0.007196878
11.025,-0.244627222,0.126562402,9.965863228,-0.001378934,0.011778052,-0.003563681
11.03333333,0.463625759,0.079074502,9.694296837,0.000546969,0.01445612,-0.002743563
11.04166667,-0.317629158,0.058431573,10.12130833,-1.12E-05,0.010295847,-0.001144008
11.05,0.543108225,0.23107259,9.914984703,0.004321882,0.012462265,-0.000887847
11.05833333,-0.356311709,-0.158263803,9.847805023,0.004161391,0.004722889,-0.001116738
11.06666667,-0.09026888,-0.131655231,9.783730507,0.000717743,0.010343234,0.002659293
11.075,-0.275885165,-0.167462364,10.20574093,-0.00139391,0.019168951,0.002602517
11.08333333,1.039966106,0.010128425,9.979961395,0.00185728,0.012997388,-0.00046717
11.09166667,-0.638444483,-0.29985249,10.23345375,0.011233541,-0.030726604,-0.001537638
11.1,0.356347471,0.03062132,9.76824379,0.009522449,-0.008960279,0.006934459
11.10833333,0.006588866,-0.237968236,9.768440247,0.017303402,-0.024796229,-0.002156582
11.11666667,-0.4157947,-0.374065161,9.767565727,0.0090859,-0.015088029,-0.002449849
11.125,0.593521297,0.187111333,9.723151207,0.014056231,-0.024799129,-0.005637558
11.13333333,-0.093237497,-0.218690768,9.725840569,0.011371903,-0.013945363,-0.008252146
11.14166667,-0.631846368,-0.376060724,9.455929756,0.003721937,0.002054878,-0.009702833
11.15,0.164229274,-0.016515914,9.504969597,0.003922664,0.00252786,-0.008460473
11.15833333,0.530619323,0.099410214,9.567986488,0.006727473,0.002295392,-0.009321943
11.16666667,-0.958788514,-0.500262201,9.567635536,0.001903327,0.007495511,-0.008333063
11.175,-0.631222725,-0.30404228,9.777661324,-0.007824317,0.041835419,-0.006958376
11.18333333,1.651462674,0.589508712,10.04709816,-0.0008418,0.016479703,-0.000922717
11.19166667,-0.084411144,-0.14558892,10.2146244,0.003642139,-0.000248114,-0.006675838
11.2,-1.293956399,-0.326820552,9.92463398,0.002511319,0.004623196,-0.00623415
11.20833333,0.806647658,0.31839475,9.816053391,0.002675164,0.014191689,-0.007786765
11.21666667,0.350789726,0.01685925,10.23213482,0.010798334,-0.004680195,-0.002515118
11.225,-0.874456525,-0.349487901,10.0261898,0.005350103,-0.01364539,-0.012214375
11.23333333,0.259211689,0.23922658,9.613956451,0.002186759,0.004107297,-0.001892821
11.24166667,0.284590155,-0.055699188,10.10354805,0.006793637,0.001376699,-0.001789105
11.25,0.426796079,0.051246658,9.805446625,0.013239914,-0.030893578,-0.004589443
11.25833333,-0.408641905,-0.259261936,9.4338274,0.005502772,-0.008695176,0.00296396
11.26666667,-0.222518057,-0.171975851,9.689177513,0.008221301,0.000948199,0.003772678
11.275,1.017255902,0.051564846,9.733516693,0.010948768,-0.016984204,-0.000669461
11.28333333,-0.570396304,-0.490627795,9.720734596,0.008664552,-0.017877191,-0.001060409
11.29166667,-1.456740618,-0.552407384,9.859906197,0.00114602,0.011066119,-0.009970617
11.3,0.872324944,0.187003925,9.769309998,-0.000915117,0.024803603,-0.006163069
11.30833333,0.444892526,-0.105897836,10.17220783,0.004690254,3.29E-05,-0.008751057
11.31666667,-0.043103032,0.00412719,9.868927956,0.008343121,-0.009401519,-0.012767826
11.325,-0.964560926,-0.427010983,9.880792618,0.003742055,0.012078247,-0.009557093
11.33333333,0.11126247,-0.117385305,10.12949848,-0.000804695,0.015183028,-0.007899868
11.34166667,0.815109372,0.282387078,9.923238754,0.002422355,0.00787014,-0.00580185
11.35,-0.435550898,-0.03411191,10.21187115,0.010697749,-0.008562849,-0.001408663
11.35833333,0.011666234,-0.080719978,9.817564011,0.003417495,0.008454885,0.001846104
11.36666667,-0.574352145,-0.2860066,10.11993599,0.006073882,0.003427776,-0.005292657
11.375,0.847175539,0.361168504,9.882932663,0.005388997,0.003501988,-0.004605537
11.38333333,-0.325854927,-0.175552219,10.14752388,0.010739994,-0.014998842,-0.007115068
11.39166667,0.1614182,-0.001623695,9.719540596,0.007451029,-0.012240528,-0.006739097
11.4,-0.945727408,-0.312700838,9.882317543,0.006700873,-0.001698353,-0.003831689
11.40833333,0.766949058,0.116913348,9.544053078,0.005128365,-0.002636717,-0.00571244
11.41666667,0.001723851,-0.28337422,9.971300125,0.008717303,-0.004564855,-0.000334395
11.425,0.753144264,0.240027949,9.64034462,0.009989617,-0.021213545,-0.001945126
11.43333333,-0.807763517,-0.505319774,9.863893509,0.011004873,-0.006142057,0.002286451
11.44166667,0.640894711,-0.014999512,9.383271217,0.006505735,-0.005597547,-0.004757982
11.45,-0.790396273,-0.552313924,9.742444038,0.0034014,0.00268254,-0.002023808
11.45833333,0.844300151,0.323737681,9.487037659,0.002816432,0.001805646,-0.007402969
11.46666667,-0.718968034,-0.629063904,10.04093933,0.006698415,-0.003160216,-0.008048739
11.475,0.337485433,0.043711022,9.766921043,-0.000373736,0.007522333,-0.010908087
11.48333333,-0.568085968,-0.300068915,10.26319218,0.002360886,0.00626008,-0.01010205
11.49166667,0.30142796,0.20118086,9.901351929,-0.001360605,0.017255787,-0.011497527
11.5,0.041036099,-0.06811671,10.06672478,0.007360052,-0.00578218,-0.007072374
11.50833333,-0.14086093,0.046293199,9.986699104,0.004613361,0.004373293,-0.002344792
11.51666667,0.243203878,0.066235296,9.784496307,0.009939547,-0.012352513,-0.000757307
11.525,-1.119784594,-0.343257785,10.19852257,0.001317241,0.005776145,0.000253255
11.53333333,0.191395774,0.070591405,9.663448334,-0.00393764,0.022455905,0.002274157
11.54166667,0.326205522,0.262545228,10.042099,0.00371389,0.003268626,-0.000928528
11.55,0.841074347,0.228189886,9.787778854,0.006627333,-0.005327975,-0.00281822
11.55833333,-0.503009379,-0.290884674,9.862031937,0.012102389,-0.018165095,-0.004714619
11.56666667,-0.666151404,-0.370517254,9.912903786,0.005116518,1.03E-05,-0.001995643
11.575,0.44350487,-0.036458042,9.792263031,0.00264387,0.008845385,-0.004095897
11.58333333,0.07348831,-0.231530368,10.07632446,0.006780672,-0.006420124,-0.002981395
11.59166667,-0.652324915,-0.398863792,9.986471176,0.003128251,0.004583855,-0.000801118
11.6,0.474319309,-0.088416293,9.918746948,0.003428224,0.004915122,0.003709867
11.60833333,0.740991592,-0.012903729,10.28987217,0.010656396,-0.013894175,-0.004969661
11.61666667,-0.058739081,-0.27122876,10.04347229,0.011194199,-0.019271326,-0.005787321
11.625,-0.227696449,-0.151304081,9.639907837,0.011070366,-0.014456121,-0.010534574
11.63333333,-0.086063005,-0.119588383,9.645973206,0.009489588,-0.010530997,-0.009175981
11.64166667,-0.131061539,-0.269440442,9.500821114,0.005571395,0.001252865,-0.014123737
11.65,-0.419821799,-0.100962378,9.54805088,0.00093054,0.004485503,-0.006258738
11.65833333,0.128186092,0.123722725,9.735863686,0.003326966,0.008684446,-0.012198504
11.66666667,0.029076016,0.017231064,9.971648216,0.005773686,0.002625988,-0.00274848
11.675,0.1801586,0.055834956,9.762320518,0.001258006,0.005456279,-0.000710814
11.68333333,-0.135396168,0.01313262,10.0850935,0.004779664,-0.000583851,0.005670193
11.69166667,0.287537128,0.136340335,10.13961983,0.005714451,-0.000264655,0.003851583
11.7,-0.544252694,-0.333429784,10.27934361,0.008029962,-0.005012355,0.004953791
11.70833333,0.036221996,0.0042774,9.937773705,0.002479355,0.002068513,0.00275161
11.71666667,0.032481059,-0.007961114,9.918475151,0.006984753,-0.001884327,0.002214699
11.725,0.069804475,-0.141626224,9.878082275,0.007246277,-0.003861194,-0.001983573
11.73333333,-0.269046992,-0.236036718,9.828414917,0.005827779,-0.007434934,-0.000621403
11.74166667,-0.160802871,-0.129630685,9.814724922,0.003997769,0.005464102,-0.002899137
11.75,0.496700555,-0.063002244,9.80539608,0.008260417,-0.000669238,0.002195252
11.75833333,0.559874415,-0.013189713,9.806990623,0.007358264,-0.00975022,-0.00340833
11.76666667,-0.18763338,-0.260284811,9.743494987,0.013114961,-0.01417783,0.000102599
11.775,-0.571433485,-0.412010908,9.773658752,0.008213701,-0.003560552,-0.002656164
11.78333333,-0.133536443,-0.30985415,9.781690598,0.002595141,0.010975591,-0.002889078
11.79166667,-0.126161769,-0.155474678,10.03873444,-0.001300476,0.011576206,-0.009078746
11.8,0.283059299,0.013940509,10.00362968,0.002541718,0.007355582,-0.011349774
11.80833333,-0.105225116,-0.162919909,10.08131695,0.004920932,0.005580782,-0.007975867
11.81666667,0.134723797,0.008626329,10.11893368,0.003248509,0.001718694,-0.006601627
11.825,0.185501829,0.1869324,10.07661057,0.005932613,-0.003632751,-0.00814083
11.83333333,-0.328358799,-0.115575813,10.04841995,0.005938425,0.003004418,-0.003421741
11.84166667,-0.243704513,-0.003533504,9.964647293,0.00571624,0.001586367,0.001897068
11.85,0.014463048,0.049833857,9.881996155,0.00390523,0.007539768,0.008850526
11.85833333,0.148371428,0.067708813,9.804552078,0.008178159,-0.007769776,0.006198162
11.86666667,-0.390609592,-0.156289622,9.77469635,0.005402633,-0.001911151,0.007518981
11.875,0.037116103,-0.034183435,9.731864929,0.005021296,0.000711261,0.004879133
11.88333333,0.023218129,-0.093652174,9.901444435,0.005327304,0.001798717,0.005583912
11.89166667,0.132327601,-0.096828036,9.818328857,0.006567876,0.000228667,0.003744738
11.9,-0.042523652,-0.235943675,9.81664753,0.005976201,-0.002495895,0.006192127
11.90833333,-0.238368422,-0.319939524,9.822214127,0.004748818,0.002983406,-0.000382677
11.91666667,-0.006487634,-0.323043883,9.75660038,0.002980947,0.008148877,0.000442582
11.925,0.006780895,-0.227689296,9.902095795,0.003736467,0.004763794,0.001647837
11.93333333,-0.049383156,-0.242752925,9.986197472,0.002028278,0.006735296,0.002042584
11.94166667,0.204442665,-0.170480564,9.918731689,0.004076898,0.008537144,0.003802854
11.95,0.114717297,-0.227825195,10.08870602,0.003750326,0.007575756,-0.002202629
11.95833333,0.376790315,0.028074909,10.14580727,0.003376142,0.002427049,-0.009175757
11.96666667,0.314417511,0.082207628,10.0689497,0.007153291,-0.00734396,-0.013679591
11.975,-0.07924635,-0.024770295,9.963609695,0.01061862,-0.013238126,-0.014598956
11.98333333,0.053710956,0.017445477,10.06624699,0.010749607,-0.013221587,-0.010162403
11.99166667,0.25398314,0.153213903,10.12127304,0.012236056,-0.021260038,-0.010395763
