Time (s),Acceleration x (m/s^2),Acceleration y (m/s^2),Acceleration z (m/s^2),Gyroscope x (rad/s),Gyroscope y (rad/s),Gyroscope z (rad/s)
0.0,0.00243180803955,0.00915564410388,9.73059272766113,0.007781176219317763,-0.000257949404183696,-0.0022893567826136286
0.008333333333333333,-0.00853334181011,0.02076470293105,9.73059844970703,0.005664381352219612,-0.0002865608146303537,-0.0018601864223898802
0.016666666666666666,-0.00484247459099,0.02306791767478,9.76539039611816,0.007209395533277706,-0.00031472510854822506,-0.0004014533616359658
0.025,-0.02311798930168,-0.01297525689006,9.75259399414062,0.007352452536747542,-0.0009155639639616439,-0.00031517217631321024
0.03333333333333333,-0.00291111599654,0.06635692715645,9.74705123901367,0.008067737554096725,-0.0006585087115626932,-0.0012597946997598482
0.041666666666666664,0.00812562927604,0.0065877684392,9.73242950439453,0.00649411207637435,-0.0018606333601177132,-0.0019741848013561463
0.05,-0.0008797996561,0.00710277305916,9.73243713378906,0.006665779856359858,0.00048527573926961706,-0.0023756382605198893
0.058333333333333334,-0.01738856174052,0.04243781790137,9.72874641418457,0.006780225043016805,-0.001488238525457366,-0.0022889099749227736
0.06666666666666667,0.00103716226295,0.03384725376964,9.73790168762207,0.006579945446218409,-0.0015168498221216468,-0.0011735133518907396
0.075,-0.00065806152998,0.00324739073403,9.74709320068359,0.006522722852890022,-0.0016599066955543308,-0.0015736256077595265
0.08333333333333333,-0.00236759101972,0.03489872068167,9.74156379699707,0.004176590284638688,-0.0007438957288462776,-0.000257949404183696
0.09166666666666666,0.0013519244967,0.02241699583828,9.7250919342041,0.007581791278198118,-0.003204474328996048,-0.000542722061536486
0.1,0.0126033090055,0.01756022870541,9.74524021148682,0.007381063833411823,-0.0011167375662528595,-0.0017457408456214765
0.10833333333333334,-0.01110817305744,0.01994927786291,9.71960639953613,0.0075236735090421945,-0.0001144454954952273,-0.0014314628698568128
0.11666666666666667,0.00536463223398,0.02791039273143,9.73057746887207,0.006351054032607296,-0.0024042495571841697,-0.002174017330389384
0.125,7.868127432e-05,0.00824722833931,9.71229457855225,0.006522722332741414,0.0002849961099620189,-0.0018038577045171602
0.13333333333333333,0.01835378631949,0.04177251458168,9.73238563537598,0.006951446015311459,0.0013713340759812817,-0.003292543297739511
0.14166666666666666,-5.00699025e-05,0.02037844993174,9.75073432922363,0.007266618646754875,-0.00019983256154261286,-0.0008020125877419612
0.15,0.01460610516369,0.00814708787948,9.73975467681885,0.006321995928252336,0.0011156200268774613,-0.0007170725732049606
0.15833333333333333,-0.02210959978402,0.02328967116773,9.7379150390625,0.006751614266501134,-0.0007157314349284064,-0.0013451816520246818
0.16666666666666666,0.01091523841023,0.00554345315322,9.73793029785156,0.006665332008371785,0.0017164588172724788,-0.0010894674728837092
0.175,0.00344767025672,0.02074324525893,9.7488956451416,0.006894223421983071,0.0005138871009524736,-0.002204416768076628
0.18333333333333332,-0.00023617250554,-0.0079682841897,9.76909446716309,0.006121716331453937,0.0008576705739299643,-0.00117440748742071
0.19166666666666668,0.00698832748458,0.0400559194386,9.71406841278076,0.007209396053426315,-0.0016339778054803105,-0.004434317178982421
0.2,0.00530044967309,0.01142304576933,9.75805854797363,0.007552732133545765,-0.0017466351111885992,-0.002860690400888525
0.20833333333333334,0.01276067178696,0.0394622348249,9.73604202270508,0.006551781477393592,-0.0020890774458895353,-0.001916067942460463
0.21666666666666667,-0.00353345228359,0.01070064585656,9.7434253692627,0.006351054032607296,-0.0010009510462638043,-0.0004577819819809092
0.225,-0.01261046249419,0.02767434902489,9.73240852355957,0.005721603945548173,0.00011288081520896765,-0.0024619194783520202
0.23333333333333334,0.01484214887023,0.00618005637079,9.73060607910156,0.008124959627276503,-0.0014323567453124787,-0.0037767015626524805
0.24166666666666667,-0.00700243702158,0.01240301970392,9.77272319793701,0.008325238703926116,-0.0004586760850016789,-0.0026331404506466727
0.25,0.00767515413463,-0.00899113994092,9.71965599060059,0.007352453056896151,-0.0007152844321819973,-0.0011735134819278919
0.25833333333333336,-0.00508567132056,0.0190980900079,9.73974704742432,0.008039125217135226,-0.0012893000019169468,-0.0032044735487731352
0.26666666666666666,-0.00131640944164,0.01424849964678,9.73426723480225,0.007581344470507438,-0.0010018452468123508,-0.0021172419348631354
0.275,0.00059368595248,0.02954839356244,9.75255107879639,0.007152620267788609,-0.0024610253428218754,-0.0016867299812328
0.2833333333333333,-0.01934803836048,0.00443472946063,9.72696685791016,0.006866059453158081,-0.0005744627675372614,-0.003291202094444556
0.2916666666666667,-0.00648762844503,0.03067854419351,9.74887466430664,0.007295229423270372,-0.00028611374686536844,-0.0015745197432894971
0.3,-0.00828983820975,0.02763135544956,9.75620746612549,0.00663761484723765,-0.0017470820489164322,-0.002574129586258171
0.30833333333333335,-0.00630165450275,0.00071528431727,9.7581090927124,0.006408277666233074,0.00014149218501894982,-0.0023474737715464644
0.31666666666666665,-0.00451344391331,0.0470013320446,9.7579870223999,0.0068378949641846555,-0.0018610804278826982,-0.0025455180295195865
0.325,-0.00985661800951,0.0401846729219,9.73968982696533,0.006752061594340599,-0.001689412257785734,-0.0024029086139633437
0.3333333333333333,-0.02616528980434,-0.00134471943602,9.75629043579102,0.007438286946888818,-0.0005722274937307369,-0.0014314627398196605
0.3416666666666667,-0.02431251294911,0.02112949825823,9.71961212158203,0.008096795658451686,-0.002776644521881669,-0.0025441770862987606
0.35,0.01802516356111,0.02926228009164,9.76351642608643,0.007009115936479309,0.0004016768630091703,-0.00046001725578743383
0.35833333333333334,-0.01129401754588,0.00958480406553,9.73062133789062,0.0074950627325266975,-0.00014439802796383875,-0.002404696624949155
0.36666666666666664,-0.00215300568379,0.03763110563159,9.72138595581055,0.0066948379607148206,-0.002834760990665722,-0.002915677915466289
0.375,0.01640146970749,0.03464121744037,9.76166343688965,0.00623705565364103,-0.0005722274287121608,-0.0012307362052934303
0.38333333333333336,0.01459895260632,0.03687290474772,9.72504138946533,0.007323841240083262,0.00011511608088801749,-0.0008601294466376447
0.39166666666666666,0.01095090527087,0.02285334654152,9.73973178863525,0.006523169660580703,-0.0011149494252298963,-0.0008297298138946727
0.4,0.01473485678434,-0.0040342034772,9.75263690948486,0.006609450878412835,-0.0024033554216541997,-0.0012852766521062097
0.4083333333333333,0.00024319665681,0.04405435919762,9.74150657653809,0.006723896065069781,-0.003119980862075424,-0.0023430030938960886
0.4166666666666667,0.00418441323563,0.00250349496491,9.7398042678833,0.006752955209721959,-0.0036622558558467504,-0.0014265452544787785
0.425,-0.00467817345634,0.01400522142649,9.73610496520996,0.008924736551100482,0.0018013990918837838,-0.002694833721625435
0.43333333333333335,0.01711646467447,0.02754550427198,9.73056221008301,0.0058919318226100725,0.0018572804819172145,-0.0027516095072631403
0.44166666666666665,-0.01232434809208,0.03352537378669,9.73970413208008,0.007066339049956478,-0.0016058134465438633,-0.003833030020450897
0.45,-0.00299704121426,-0.00247488357127,9.74898910522461,0.007037727233143589,-0.0004881815822145059,-0.002547753628418991
0.4583333333333333,0.00798936840147,0.02741693332791,9.75253486633301,0.00712400845097572,-0.0017756933455807125,-0.002803020479720675
0.4666666666666667,-0.02297493070364,0.01693077944219,9.73977565765381,0.006522275004901949,-0.00034557174403760613,-0.0027766442618071905
0.475,0.02281018719077,0.01930559240282,9.73058319091797,0.007238901485620566,-0.0023175212715870535,-0.0017716699957698006
0.48333333333333334,-0.00446337414905,0.03275286778808,9.75252914428711,0.006210679955876155,-0.005120989339221497,-0.001165466522231764
0.49166666666666664,0.00146633281838,0.00200279592536,9.71602153778076,0.007438286946888818,-0.00025526711137598737,-0.0008029067232719316
0.5,0.01607264578342,0.04657211527228,9.71950626373291,0.005865108276857299,-0.001460074166521093,-0.0019732906658260015
0.5083333333333333,-0.0093559185043,-0.00590109545738,9.7618350982666,0.006236609366098957,-0.0008292828111482637,-0.0012593475019577107
0.5166666666666667,0.0089553957805,0.0163227841258,9.69399166107178,0.006465947067252141,-0.0010849969902892362,-0.00031472510854822506
0.525,0.01091523841023,0.01158045232296,9.75077724456787,0.008183524204123107,-0.002313051114085461,0.00023045569565878938
0.5333333333333333,-0.02734531834722,0.00852618925273,9.74715042114258,0.00677888357964737,0.0012595710358402905,-0.001121208243903061
0.5416666666666666,-0.0238118134439,0.03281009197235,9.73056983947754,0.007868351572679863,-0.0027449034907878387,-0.001084549857505675
0.55,0.01306803058833,0.01351888570935,9.77091789245605,0.007552732133545765,-0.0004859463084079813,-0.0015754138788194674
0.5583333333333333,0.00755340233445,0.03585720062256,9.71405410766602,0.006866506260848936,-0.0015164028843938134,-0.0016871770489977854
0.5666666666666667,-0.00140911003109,0.00177390500903,9.75083446502686,0.006751613746352525,-0.0004850522378964124,-0.001031350679006602
0.575,0.01144454907626,0.00604415219277,9.75996112823486,0.008840243604328467,-5.3199271963199834e-05,-0.00031785445286614395
0.5833333333333334,-0.01055044308305,0.02127255499363,9.73610687255859,0.005263822158622991,-0.0010899144756301184,-0.0022889099749227736
0.5916666666666667,-0.00311863957904,0.0163227878511,9.75810146331787,0.006521828717359877,2.525847738679531e-05,-0.0029210422084978527
0.6,-0.00314009794965,0.0277887955308,9.7470645904541,0.008210794037417951,-0.001315676349867583,-0.001802516631259182
0.6083333333333333,-0.01034316141158,0.0027180777397,9.72887420654297,0.005463654947730533,8.650469482326037e-05,-0.000775189432100644
0.6166666666666667,0.00249634217471,0.00886952504516,9.77095508575439,0.006979610504285059,-0.00040279449991251996,-0.002548200696183977
0.625,-0.01401933096349,0.04770945385098,9.73781585693359,0.007551838518164404,-0.0004050298062282453,-0.003578657564753488
0.6333333333333333,-0.01027148216963,0.00078681274317,9.75086307525635,0.006522276045199341,0.00040257099853931546,-0.0005753569030672318
0.6416666666666667,0.022645695135,0.00682383775711,9.74532508850098,0.0066943911530241386,-0.0008873996050253711,-0.001717129548957196
0.65,-0.002997207921,0.06401796638966,9.72858047485352,0.0066371680395469704,-0.001258453236390588,-0.0014015101098232723
0.6583333333333333,0.00815426371992,0.02075754292309,9.75441646575928,0.006323784199312449,-0.0017126588713069946,0.00020184430146655757
0.6666666666666666,0.01745266094804,0.00834741163999,9.73067092895508,0.005005872640656919,-0.000806036002571449,-0.0031186396587802936
0.675,-0.01180219091475,0.03622914850712,9.74153518676758,0.006093999170319802,-0.0013165702253234237,-0.0014873443899273955
0.6833333333333333,-0.00252495356835,0.01840426400304,9.73613548278809,0.007121773372224924,0.001628389588454711,-0.0024386727347937816
0.6916666666666667,0.0120024709031,0.00978508871049,9.72518444061279,0.007523227741648907,-0.001236995154003747,-0.004549209173330049
0.7,-0.00988504942507,0.02874723635614,9.73974895477295,0.007839293988473512,-0.00183291632902073,-0.0025732359708768096
0.7083333333333334,0.01588646508753,0.02938387915492,9.73240852355957,0.0058369437878837,-0.0015427789722701455,-0.0005418279260063411
0.7166666666666667,0.00329030770808,-0.02313229441643,9.75650596618652,0.005606264623361081,0.00028365497168563933,-0.002177594002546767
0.725,-0.00235328543931,0.05961894616485,9.73958301544189,0.005376926922207897,0.001518861627064342,-0.0003209838622028135
0.7333333333333333,-0.00607276381925,0.0198205281049,9.74712944030762,0.006751167458810452,2.2352635846547397e-07,-0.001547696717685332
0.7416666666666667,0.01041453890502,0.00012159832841,9.72524833679199,0.006980057832124347,-0.0003437835379960667,-0.001976420010144095
0.75,-0.00058654358145,0.03740222379565,9.74519157409668,0.007296124599097734,-0.0013679815878924139,8.605765956765046e-05
0.7583333333333333,0.00501414900646,0.04344636201859,9.73599815368652,0.006179386252621788,0.0003185250870230843,5.3422801782129626e-05
0.7666666666666667,-0.00037898539449,-0.0347055606544,9.75293159484863,0.0061775985017104565,0.0019466913041415689,-0.0010380565654447517
0.775,0.02683746628463,0.01700230687857,9.7324800491333,0.005750215762361063,-0.001148925665111675,-0.0028602433331235398
0.7833333333333333,-0.01340442802757,0.05772344395518,9.73959732055664,0.006895117557513042,-0.0017797166953916243,-0.003745854667088795
0.7916666666666666,0.01614396646619,-0.00738888699561,9.77474594116211,0.005376479594368433,0.0016874005828803652,-0.0014091101317913923
0.8,-0.00049353553914,-0.00165946036577,9.74360370635986,0.006808837379978303,-0.00036747738182866575,-8.762233985391013e-05
0.8083333333333333,-0.00604438688606,0.06305234134197,9.75787353515625,0.005321044751951378,-0.000805141867041304,-0.0024605780149825856
0.8166666666666667,0.00504990713671,0.0285756085068,9.73426151275635,0.008640412375666751,-0.0012584534964648923,-0.0019165151402626005
0.825,0.0051860017702,-0.00369799765758,9.73079204559326,0.005320151136570016,0.0006269914744259216,-0.002006819447831164
0.8333333333333334,-0.00225294008851,0.04252363741398,9.73602199554443,0.007438286946888818,-0.0007430015933161327,-0.0015459084466252163
0.8416666666666667,0.01063627749681,0.03770263493061,9.74519729614258,0.007181232604750107,-0.00033841895238082405,-5.945801749048812e-05
0.85,0.00159497908317,-0.01109409332275,9.75649070739746,0.0061485393570581024,0.002089748177574253,-0.0009531165509079255
0.8583333333333333,-0.00414129439741,0.03508468717337,9.7415657043457,0.005893272245682115,-0.0003165133470989651,-0.001918303411322716
0.8666666666666667,-0.00412731012329,0.03554247692227,9.73790073394775,0.008210794037417951,-0.0002852196438445988,-0.0016335306076779986
0.875,0.01793933100998,-0.01138732582331,9.73452568054199,0.0074105703059032905,-0.0008797997781128046,0.0004571114453519202
0.8833333333333333,0.01062912493944,0.03509899973869,9.75437450408936,0.005578100654536265,-0.0004904168885302313,-0.0025759178573182867
0.8916666666666667,0.00515719968826,0.03539941832423,9.73056983947754,0.0073238407199346526,-0.0008033537260183406,-0.0024038022293448803
0.9,0.00349045032635,-0.00962778367102,9.75650596618652,0.007406545915795162,0.00308891082274079,-0.002073430464225113
0.9083333333333333,-0.00048645978677,0.0238189753145,9.73798656463623,0.008125854803103865,-0.001312547005549664,-0.0009142228907038405
0.9166666666666666,0.00509997690096,0.02811782620847,9.73428249359131,0.006895118077661825,-0.0016348719410102812,-0.002801679536500023
0.925,-0.00387684092857,0.00485678017139,9.73263740539551,0.006924623509856077,-0.002085948101571617,-0.0007398722489982138
0.9333333333333333,-0.00185973918997,0.00555060617626,9.75277233123779,0.008581400991129466,0.0007159549688109864,-0.0017801641532680663
0.9416666666666667,0.01081509888172,0.04285268113017,9.74884605407715,0.007407886859015813,0.0008554353651420156,-0.002466389895927917
0.95,-0.0056435931474,-0.00232467404567,9.75100612640381,0.007350665305984645,0.001917632939712303,-0.0014690153917843436
0.9583333333333334,0.00334056466818,0.00555053027347,9.74179458618164,0.007640354294598723,-0.0031222162009005247,-0.002739092129991116
0.9666666666666667,-0.00381246535107,0.0575660802424,9.76157760620117,0.008411520441906857,-0.0009692102752442783,-0.0009727866873273569
0.975,0.01831159926951,0.01621558889747,9.76735019683838,0.005233422590898596,0.0015081323908152804,-0.0034409648543153896
0.9833333333333333,-0.01112267095596,0.0238118134439,9.75266551971436,0.0054363845942870795,-0.0012012306430620272,-0.0011426667164013585
0.9916666666666667,0.0218876991421,0.04253795742989,9.74153518676758,0.00684013108323267,-0.0034043068580292854,-0.001535626148103988
1.0,-0.02169457264245,0.00276099727489,9.74551200866699,0.005840073522313249,-0.004720429625476268,-0.0012732060825248657
1.0083333333333333,0.00972786638886,0.02683031372726,9.70868968963623,0.006751167458810452,0.0006055329369090478,-0.0002056442636868165
1.0166666666666666,-0.00131612305995,0.04392560943961,9.72140026092529,0.00706678585764716,-0.0015181910254167767,-0.0022008404860307013
1.025,-0.01025699172169,-0.00122314842883,9.7308931350708,0.006150328148266827,-0.0004014533941453411,-0.0016894121277485818
1.0333333333333334,-0.01204557064921,0.00680950796232,9.7601318359375,0.007323393912243973,-8.494001453700071e-05,-0.0014050867819804809
1.0416666666666667,0.02086458727717,0.02192347310483,9.73436737060547,0.007552285846003694,-0.00040100632638018143,-0.0018905861201512536
1.05,-0.00284697441384,0.00057937466772,9.74187088012695,0.00809590152292154,0.0003145016071750204,-0.001979549484499166
1.0583333333333333,-0.00476379320025,0.01376206986606,9.70515632629395,0.005492266764543423,8.42694372713362e-05,-0.0017198118255101296
1.0666666666666667,-0.00111618556548,0.03099332749844,9.74347972869873,0.006694390632875355,-0.001235206492832175,-0.0028593491975933945
1.075,0.01366193033755,0.02807490900159,9.76546192169189,0.0070927147477213535,0.001397710293894766,-0.0028128557104769173
1.0833333333333333,-0.00843320228159,0.01924830116332,9.73991203308105,0.006837447116196584,3.5540692602935e-05,0.00022509102877019566
1.0916666666666666,-0.00113730202429,0.04372533038259,9.75255107879639,0.0052928807831265625,-0.0012034658518499757,-0.0016286129922999644
1.1,0.01911971159279,0.02208084054291,9.73439121246338,0.007723506298149912,0.0004888521513526957,-0.001178430967268774
1.1083333333333334,-0.00281839468516,-0.01771044358611,9.7237377166748,0.0056058178156704,0.0002268792510663354,-0.0017488703199765472
1.1166666666666667,-0.00105146795977,0.01588646508753,9.74544811248779,0.006439124041648151,-0.0015356260180668358,0.0007754129659830495
1.125,0.01373330596834,0.0091628562659,9.75098991394043,0.007183467163352295,-0.0030877932833653916,-0.0011927367456380663
1.1333333333333333,-0.00067221157951,0.02262439206243,9.76187896728516,0.005636664191085477,-0.001889244786819146,-0.001540096695717037
1.1416666666666666,0.01045030355453,0.01932698115706,9.74907493591309,0.004778770538402965,-0.003044876598443275,-0.00405298033883591
1.15,-0.00210293591954,0.0234613250941,9.76187801361084,0.008210347229727272,-0.00019580908169454896,-0.000890081946596881
1.1583333333333334,0.0107364859432,0.00746039766818,9.73636531829834,0.006438677233957471,-0.0017698818547468376,-0.0005968153755655296
1.1666666666666667,-0.02390480041504,0.01728126779199,9.76194953918457,0.004778322690415067,-0.0011158435607600413,-0.0011422196486363734
1.175,-0.00371232558973,0.02115811035037,9.73627090454102,0.00597731838476345,4.582290578733692e-05,-0.0040377797747507115
1.1833333333333333,0.00726718083024,0.02909062802792,9.74717807769775,0.008068630649329478,-0.0014001691666024466,-0.0014860031866322655
1.1916666666666667,0.01660174876451,0.00235328543931,9.75473213195801,0.006950105592239416,0.0007432252572358647,-0.001752446732059626
1.2,0.00186689198017,0.01195240020752,9.74368095397949,0.006893330326750318,-0.0001193630864913611,-0.0027498214962775043
1.2083333333333333,-0.00727444142103,0.0237474385649,9.77471733093262,0.0074950627325266975,3.41995340081304e-05,-0.0004904168235116552
1.2166666666666666,-0.01273206062615,0.00595831824467,9.76573371887207,0.006438229906118007,-0.0016022367743864804,-0.0015414377689750153
1.225,-0.01635855250061,0.02993464842439,9.72707271575928,0.008268910766276484,-0.0010259859308450062,-0.0010586209024129043
1.2333333333333334,0.00384834688157,0.03975548967719,9.72147274017334,0.008068183321490188,-0.0010572797641365246,-0.00163040126336008
1.2416666666666667,0.00215300568379,0.01663751341403,9.72534847259521,0.006981846103184463,-0.0018575040157996195,-0.0011399844398484245
1.25,-0.03792437165976,-0.00110869063064,9.73469734191895,0.006095340113540629,-0.0016809182303246205,0.00020407957527308212
1.2583333333333333,0.01527847256511,0.01797509379685,9.75280094146729,0.0072362185588818705,0.0011491490689569284,-0.0006102269533861009
1.2666666666666666,0.00236759101972,0.02215950749815,9.74911785125732,0.006751613746352525,-0.0011207613061752278,-0.002688127965224438
1.275,-0.04325324296951,-0.00845465995371,9.75676345825195,0.005752004033421003,-0.0018592922868597354,-0.001196313157721145
1.2833333333333334,0.0281750485301,0.0433104634285,9.74157810211182,0.0046629838883767575,-0.0012361008884366244,-0.002343450681809857
1.2916666666666667,0.01735279709101,0.00875507947057,9.72909641265869,0.007582684373430871,-0.003158874717335237,-0.004338646757861989
1.3,-0.02261000685394,0.00039338279748,9.75851058959961,0.009070028633321115,-0.0016281659245349792,-0.0016000016956356842
1.3083333333333333,0.01405519060791,0.02853270433843,9.74173450469971,0.007324288047773944,-0.0008552118962780118,-0.0011162907585621786
1.3166666666666667,-0.00598661694676,0.02366876229644,9.75095748901367,0.006636273904016824,2.347026728160587e-05,-0.002636269925001919
1.325,-0.02617241814733,0.02562860399485,9.71251487731934,0.005776591460125763,0.0010570561652353688,-0.0016111779996499053
1.3333333333333333,0.00492115598172,0.01174496859312,9.73642158508301,0.00706633852980787,2.0117372572561268e-06,-0.0012061481284029092
1.3416666666666666,0.02135123685002,0.03620053827763,9.73983287811279,0.006437335770588036,-0.0012325243463163933,-0.0020005610192694563
1.35,-0.00045796681661,0.00732452608645,9.73464584350586,0.005749768954670206,-0.0004886286499794911,-0.0018034106367520002
1.3583333333333334,0.00507136574015,0.0152427079156,9.74739360809326,0.007094503538930079,0.00011869250922569657,-0.000748813344224312
1.3666666666666667,0.01589361764491,0.06134993582964,9.71947574615479,0.006893777134441,0.0008929877570323945,-0.0003518304976921946
1.375,0.01057190168649,-0.03521344438195,9.71309566497803,0.007294783655876909,-0.0008042479265670619,-0.0023465798960906237
1.3833333333333333,-0.00965633802116,0.03703026846051,9.74172115325928,0.006837000828654511,-0.00028656078212115294,-0.0017193647577451445
1.3916666666666666,0.02147998660803,0.03562831133604,9.7215576171875,0.006266114278144599,-0.001724729310851012,-0.003085110876775131
1.4,-0.01296078599989,-0.03690151497722,9.75161552429199,0.007036833617762228,0.00031628984572576056,-0.0013223819762314285
1.4083333333333334,0.00873362086713,0.05132164806128,9.72142124176025,0.007009563784467382,-0.0005118753935377296,-0.001031797746771587
1.4166666666666667,0.01982768066227,0.03750950843096,9.74535465240479,0.007667625168190785,-0.0003393130554015937,-0.000975916161682428
1.425,-0.00022173812613,0.00864063389599,9.7310209274292,0.00586197854242775,0.0014562742205556092,-0.0018423042319375092
1.4333333333333333,-0.00768238678575,0.01831849291921,9.73825836181641,0.006094893825998556,-0.0016916475966110092,-0.002140935746186359
1.4416666666666667,0.01256039179862,0.02987027168274,9.73995494842529,0.007671201190162233,-0.003774018895987916,-0.001273206212562018
1.45,0.01295374240726,-0.01556457858533,9.71296119689941,0.006867847724218197,-0.0011909484745779508,0.00045934671915844483
1.4583333333333333,0.00200279592536,0.01615111902356,9.7181453704834,0.0063228905839310895,-0.0008865055995323783,-0.0014015102398604244
1.4666666666666666,0.01851155795157,0.04652209207416,9.76725673675537,0.00795373865498185,-0.00145828602549813,-0.0017426115013033827
1.475,-0.01234580669552,-0.00979224219918,9.7568998336792,0.0070091169767767005,-0.0010072099949741211,-0.0027457981464665926
1.4833333333333334,-0.01424131076783,0.03632213547826,9.73443984985352,0.007238007870239204,-0.0005150048028743991,-0.0016898593255508937
1.4916666666666667,0.00602969620377,0.02836817502975,9.78760528564453,0.007924232702638815,-0.0002297850940112243,-0.0021212650245997426
1.5,-0.00501414295286,0.03391162678599,9.73446846008301,0.005862425870267212,0.0012291715981530467,-0.0015552963495421704
1.5083333333333333,-0.01243164110929,0.02512078359723,9.72541999816895,0.006753402017412641,-0.0013384758956236842,-0.0004550996404092249
1.5166666666666666,0.02431971952319,0.02219527214766,9.73456287384033,0.007066785337498552,-0.0002221851858254813,-0.0004327470323811314
1.525,0.00419156579301,0.01885489374399,9.71632194519043,0.0064654997394128525,-0.00013500992186385658,-3.218779611592349e-05
1.5333333333333334,-0.00494976714253,0.02690184302628,9.73639297485352,0.005463654947730533,-0.000980833777060637,-0.002802126604265008
1.5416666666666667,0.02814643643796,0.01859739236534,9.76574802398682,0.006613474748372354,-0.003398495237158259,-0.00041531200722169686
1.55,0.01373345870525,0.03382579609752,9.77293682098389,0.0066371680395469704,-0.0010054215288582773,-0.002258957474963537
1.5583333333333333,-0.03194459527731,0.01184510812163,9.73477649688721,0.005007214104026179,-0.00132059383520864,-0.0019133856659073547
1.5666666666666667,-0.00437060091645,0.01234579645097,9.73657035827637,0.005492266244394814,0.00023000862789362964,-0.001092149749436643
1.575,0.0066592968069,-0.00538609083742,9.74590587615967,0.0066943911530241386,-0.0002248675111423907,-0.0008333062259777513
1.5833333333333333,0.00843297224492,0.02637254074216,9.75287914276123,0.005920989406816425,-0.0003478070503533314,-0.00217669973697947
1.5916666666666666,0.00481386343017,0.01566472649574,9.73654270172119,0.00623616151811106,-0.0010689030058784045,-0.0032889667556192806
1.6,0.00114472489804,0.03600026294589,9.70884132385254,0.006464159836489418,-3.308190523225557e-05,-0.00235060350597584
1.6083333333333334,-0.00061514449771,0.02205221541226,9.72549152374268,0.007036386289922763,-0.00037686544729197244,-0.0024918719783112563
1.6166666666666667,0.00307566020638,0.02644405514002,9.73825073242188,0.005005872640656919,0.0002049736620392514,-0.0003482540856091159
1.625,0.02502779662609,0.04001300409436,9.76371669769287,0.005920542599125745,-0.0005015931600350773,-0.004035545216148699
1.6333333333333333,-0.00606567692012,0.02162306383252,9.72185707092285,0.007899197948094766,-0.0026264349543199794,-0.0009343401599068333
1.6416666666666666,-0.00213909847662,0.00957768596709,9.7329797744751,0.007437392811358847,-0.0005793803178967198,-0.003005982483109158
1.65,0.00884070619941,0.02096504159272,9.71269416809082,0.007868799420667762,-0.0022951689236332647,-0.002967983023453794
1.6583333333333334,-0.0183613486588,0.01653737202287,9.75674247741699,0.006613474228223746,-0.003744513463793665,-0.0009267403329944413
1.6666666666666667,0.01303963270038,0.03197320923209,9.76933860778809,0.006235267382580914,-0.0005239458005727206,-0.0029773711864448773
1.675,0.01484214887023,0.03562831133604,9.72534847259521,0.006637168559695579,-8.449297115391606e-05,-0.0013487581941449126
1.6833333333333333,-0.00700263306499,0.00900542922318,9.75683498382568,0.007151056180796834,0.00040100632638018143,-0.0016956710764588984
1.6916666666666667,0.00389114650898,0.01282504759729,9.7183313369751,0.005806544220159479,-8.449296302661587e-05,-0.0011484783372723857
1.7,-0.01255306135863,0.01542863063514,9.7476167678833,0.007955081158648502,-0.0024069319637742555,-0.002509307100998642
1.7083333333333333,-0.00139480433427,0.0289618615061,9.75111293792725,0.0056080528944211965,-0.001315676219830431,-0.0011981012987441083
1.7166666666666666,0.00229606265202,0.03444093838334,9.71076393127441,0.006382794543552344,-0.0032411323252819774,-0.00287544311698565
1.725,-0.00646595843136,0.00411283504218,9.73678016662598,0.005064884025194029,-0.0012012307730991793,-0.0011694900020798279
1.7333333333333334,0.01002130191773,0.03205189481378,9.73825359344482,0.0070082223210979466,1.5646847309151328e-06,-0.0013500993974400431
1.7416666666666667,0.0063449353911,0.03426929563284,9.72358989715576,0.004746582699618628,0.000308242853520432,-0.0021516648523982685
1.75,0.00639464147389,0.02408362179995,9.75851631164551,0.0050613080032225815,0.0004235825008002301,-0.002123947691264133
1.7583333333333333,-0.00830445066094,0.01876190677285,9.74211502075195,0.005380503464327954,-0.0020913127847146363,-0.0017081885837682497
1.7666666666666666,-0.0044848327525,0.03029228933156,9.74930381774902,0.0064654997394128525,0.0005281928468125652,0.0005925683618348858
1.775,0.00097278662724,0.02336833812296,9.73838806152344,0.007380617025720968,4.69405355796915e-06,-0.0009495399437691184
1.7833333333333334,-0.0026322461199,0.00939168315381,9.74590587615967,0.0071003146396523215,-0.003191062035970965,0.0005004755231319022
1.7916666666666667,0.00116591341794,0.03342523425817,9.71630764007568,0.007323393912243973,9.633986056092755e-05,-3.487011127379492e-05
1.8,0.00859072152525,0.00683098984882,9.73678016662598,0.008264887416465572,0.0012582297025080082,-0.002131547323120971
1.8083333333333333,0.01579347811639,0.00736027536914,9.7239465713501,0.005147141373066639,0.0001057279747882099,-0.002551329910464918
1.8166666666666667,-0.00807555951178,0.0371876321733,9.73825931549072,0.006895117037364434,-0.00114534886291714,-0.001772117063534786
1.825,0.00310423318297,0.00665216660127,9.73863697052002,0.007068574128707275,-0.0016540950746833036,-0.0007957538340873728
1.8333333333333333,-0.01144460309297,0.02196639403701,9.74945449829102,0.00658262733266006,-0.0013889927325512474,0.0004611348926906088
1.8416666666666666,-0.00612998660654,0.10463894158602,9.72642135620117,0.00706723266533784,0.00010751618082974922,0.0017102001286364663
1.85,-0.00276139448397,0.19124563038349,9.72346782684326,0.007244713626640201,-0.001179325232836071,0.006181621851521368
1.8583333333333334,0.03000662662089,0.28147143125534,9.70760250091553,0.008593023712722912,-0.0008538706279644802,0.01195843593526947
1.8666666666666667,0.00963512994349,0.40705391764641,9.74077796936035,0.010716971143912742,-0.0011064555278059351,0.021000080056737862
1.875,0.02471921406686,0.31193631887436,9.74928092956543,0.012436336031695038,0.0010016215828926188,0.028023276937332364
1.8833333333333333,0.01589205674827,0.21227799355984,9.76709175109863,0.011409010197926598,4.224648557695803e-05,0.03020489689043326
1.8916666666666666,-0.00591144897044,0.23299139738083,9.75401592254639,0.01012596992494288,-0.00275250390286759,0.03179819126922195
1.9,-0.0020172894001,0.15860122442245,9.75134086608887,0.012674615088148624,0.0001294217698568332,0.03881557704909403
1.9083333333333334,-0.01851601526141,0.20565618574619,9.75072383880615,0.015131617341234064,-0.00016630361699092273,0.03277812844004637
1.9166666666666667,0.02024826221168,0.02173178642988,9.73302841186523,0.017909154958348487,-0.0006911434880750376,0.035211883169350484
1.925,-0.00667582079768,-0.26574197411537,9.76088619232178,0.016276964903779507,-0.0032590142556600445,0.03222691235104877
1.9333333333333333,-0.19057320058346,-1.49930739402771,9.6611442565918,-0.0002507966125269139,-0.014680766014927005,-0.00032724264836660275
1.9416666666666667,0.55148416757584,-0.64110213518143,9.69561386108398,-0.004274271080292966,0.016597502348403098,-0.0034311293634848423
1.95,-0.36986637115479,0.5399466753006,9.90592193603516,0.01507886386510988,-0.012744131914978087,-0.006733060564141307
1.9583333333333333,-0.20657409727573,-1.05040216445923,9.62025165557861,0.012468523870479375,0.004092096817718063,-0.004731158731688177
1.9666666666666666,0.30290859937668,0.26466235518456,9.78414535522461,-0.001296005888355271,0.00308891082274079,-0.008090312525673028
1.975,0.17984393239021,0.42987155914307,9.82779884338379,0.019594544776583376,-0.0024985777347124286,-0.00692171743934626
1.9833333333333334,-0.3666475713253,-0.52767235040665,9.64814758300781,0.009492494407478234,-0.005404420419422301,-0.012301549911915188
1.9916666666666667,-0.02835386991501,0.32800790667534,9.72696495056152,-0.009403307639284894,0.006368042607678131,-0.016776099548709338
2.0,0.27335974574089,1.60514068603516,9.7998514175415,0.003973627501027292,0.0004955579077536933,-0.00303951126511432
2.0083333333333333,-0.0891744941473,0.22188118100166,9.77069759368896,0.017150506708460814,-0.0033265191475098333,0.01331434799387776
2.0166666666666666,-0.06804499775171,-0.3097753226757,9.75818061828613,0.0038140308107717366,0.002388826109402327,0.013598227442215246
2.025,0.22792519629002,0.0812633857131,9.77771472930908,0.0032114032291681695,0.001424533449536083,0.010859581339691896
2.033333333333333,-0.02067171595991,-0.47620052099228,9.72941875457764,0.013165926697376358,-0.004203637234236889,0.0032806966521522042
2.0416666666666665,-0.26003444194794,-0.75489675998688,9.65153121948242,0.002427719704587836,-0.0017569172796726752,-0.0056261582286445165
2.05,0.13286405801773,0.18982215225697,9.71584987640381,0.0008523059558053463,0.0007848009989371552,-0.006129986694995493
2.058333333333333,0.06325259059668,0.18660336732864,9.74714374542236,0.01536319064128683,-0.0003732890352088937,-0.0013264054560794924
2.066666666666667,-0.08597717434168,-0.54295086860657,9.75265121459961,0.012930329527364075,-0.00268142220882344,-0.003796819091929778
2.075,0.06392488628626,-0.09426733851433,9.79342269897461,0.0007356253653047222,0.000363230368098022,-0.00881632820968012
2.0833333333333335,0.07767271995544,0.52795135974884,9.75850963592529,0.006973798883414031,-0.003286731676868484,-0.011598782271838033
2.091666666666667,-0.10486067831516,0.19957147538662,9.69959831237793,0.009495847285678734,-0.0033904474972392177,-0.006563628383055204
2.1,-0.03351106867194,0.44239619374275,9.71413326263428,0.002345909164405906,0.0008961171663688895,0.0010490091405206648
2.1083333333333334,0.09266473352909,0.59214818477631,9.78309345245361,0.007477180021925719,-0.0012034658518499757,0.010531444523285773
2.1166666666666667,-0.04717244207859,-0.18630301952362,9.74743556976318,0.011883778999476614,-0.0018588452190947502,0.010447398904353221
2.125,-0.01361901313066,-0.51647102832794,9.7670783996582,0.003491705615236815,0.000504946038235576,0.0022243108935086717
2.1333333333333333,0.06994789838791,-0.02330412343144,9.77593326568604,0.0009998333768510795,-0.0006424147271520361,-0.001742164433538398
2.1416666666666666,-0.0416581556201,-0.11754982173443,9.72445487976074,0.010041028610034183,-0.0004403469243120995,-0.0022947215957938006
2.15,-0.05607113614678,-0.31505411863327,9.69089317321777,0.008122277740835026,-0.00013232761280154758,-0.002953677115047349
2.158333333333333,0.03695873916149,0.02708781696856,9.73861026763916,0.005775697844744401,0.00043028825720122773,-0.003928252073434822
2.1666666666666665,0.01137989480048,-0.00497835408896,9.76845932006836,0.010924851672939323,-0.0009526692880870374,-0.005724957343897281
2.175,-0.0341405197978,-0.13990245759487,9.7541675567627,0.008832196904706643,-0.00012517477238096434,-0.009534739840566851
2.183333333333333,0.06606365740299,0.27747309207916,9.80427265167236,0.0019377500788783182,-0.00012785707331579863,-0.009156980842912093
2.191666666666667,0.01047176215798,0.6134278178215,9.73502635955811,0.007037727233143589,-0.0017533406075152921,-0.0016523069336605149
2.2,-0.04739473760128,0.21065837144852,9.71210193634033,0.010618619356499263,-0.002607211560572653,0.0022140285949874437
2.2083333333333335,0.01540693920106,0.02705918997526,9.73869609832764,0.0045834084269456244,0.0002577258865557165,0.006974246211253495
2.216666666666667,0.03736613318324,0.02941984124482,9.74595737457275,0.004782793888213877,-0.0028861727433461683,0.003708972746808655
2.225,-0.05364632233977,-0.23842571675777,9.70090770721436,0.007815152329162214,-0.00225582826068277,0.0034724819614150096
2.2333333333333334,0.03450530394912,-0.24993467330933,9.73575687408447,0.0046057607748995885,0.001061973780613403,0.00010125744342976113
2.2416666666666667,0.05424684286118,0.00732445716858,9.7646017074585,0.00617625599804363,0.0010396209775295811,-0.002875889924676331
2.25,-0.03004194051027,-0.07369574159384,9.71294593811035,0.010443821321935772,-0.0034995289110132106,-0.0020416898232429137
2.2583333333333333,-0.00751048512757,-0.24850407242775,9.72123527526855,0.007778493812727502,-0.001955408605410957,-0.005456725527409804
2.2666666666666666,0.02882595732808,0.05440452322364,9.72363185882568,0.0056008998101807345,-0.000486840411428751,-0.007612413989693463
2.275,-0.01900510303676,0.23072209954262,9.73185729980469,0.0072049258959247225,-0.0011905014068129655,-0.006292267352286961
2.283333333333333,-0.02073649689555,0.19802644848824,9.71223640441895,0.006520040446299937,-0.00030936049042360695,-0.003494611165598024
2.2916666666666665,0.06715089082718,0.32672756910324,9.81436538696289,0.005294669054186678,-0.0033774830522022075,-0.0006643203324337205
2.3,0.02167276479304,0.241873472929,9.75539016723633,0.006900929698532679,-0.0014073218607312773,0.005697910134224774
2.308333333333333,0.00026444441755,-0.06029839068651,9.72376155853271,0.007643930836718779,-0.0030305704299625263,0.0030781814564544018
2.316666666666667,-0.01394110452384,-0.14712661504745,9.75270175933838,0.003294108425028678,-0.0033019317208050738,0.001768317247606454
2.325,-0.01205981709063,-0.06330265849829,9.71103668212891,0.004349152200154166,-0.00033350133700261515,0.0007991066472692955
2.3333333333333335,-0.04311733692884,-0.12752804160118,9.68469142913818,0.007266172359212803,0.000340877760069754,-0.0009544576891843049
2.341666666666667,0.02658689208329,-0.13114738464355,9.75606155395508,0.00777759967719753,0.001123220048845756,-0.003221909191608955
2.35,0.04109308123589,-0.04739473760128,9.79677677154541,0.00772037708386897,0.0006055329369090478,-0.0035607751142269876
2.3583333333333334,0.00065090868156,-0.03667977824807,9.74724388122559,0.010298530280012359,-0.002827161618883362,-0.003706514264212606
2.3666666666666667,-0.01027148216963,0.04818154871464,9.73486232757568,0.005028672316450172,0.0011026555818404514,-0.005336468199733221
2.375,0.00394121650606,0.24075753986835,9.72610664367676,0.00474658217947002,-0.001720259023312267,-0.004253259415485524
2.3833333333333333,-0.01072211191058,0.3068068921566,9.71219444274902,0.006750272803131873,-0.0009294226095473751,-0.0022884629071577883
2.3916666666666666,0.00801825616509,0.1598088145256,9.7567720413208,0.006235714710420203,0.002099583148256192,0.0006909200192112084
2.4,0.03006339818239,0.05848164483905,9.79691314697266,0.006097128904749353,-0.0013469700531219494,0.0025229422777203695
2.408333333333333,-0.00454920809716,-0.03166563436389,9.74723625183105,0.006469076281533084,-0.0013500991373657386,0.0021219356262471333
2.4166666666666665,-0.00614434108138,-0.13041776418686,9.72513961791992,0.008639964527678852,-5.543453764242422e-05,-0.000637944244557563
2.425,0.01582957431674,-0.0943960621953,9.75380420684814,0.005405090370884103,0.0002747138764593665,-0.001724729310851012
2.433333333333333,-0.00447052670643,-0.06724387407303,9.71125793457031,0.00703817404083427,-0.00034154826418954215,-0.00046225249708458304
2.441666666666667,-0.02627932466567,-0.1064700782299,9.74313163757324,0.008666340225443554,3.956416432369872e-05,-0.002842361142671168
2.45,0.01765321567655,-0.06670025736094,9.77349472045898,0.0072925480569775054,0.00029349010491393115,-0.0031579805818050923
2.4583333333333335,0.00999252125621,0.06504080444574,9.73277282714844,0.007976537810626494,-0.0005936860312474361,-0.006526522538781201
2.466666666666667,-0.00285398424603,0.13575381040573,9.76087665557861,0.006405147931803524,-0.0018718097941689124,-0.005255104467242147
2.475,0.02828234061599,0.1984127163887,9.75056266784668,0.006721214178628304,-0.0004430292658837838,-0.002292486517043004
2.4833333333333334,0.00081522605615,0.2040777951479,9.73220729827881,0.006151669091487653,-0.002098465348806489,-0.0017622818327787174
2.4916666666666667,-0.00801833719015,0.09981077164412,9.71208000183105,0.005895507844581695,-0.0009575869034652464,0.0011178554957397143
2.5,-0.00222453405149,-0.00016451538249,9.72666454315186,0.005466784162011476,0.00042581774209755386,0.0023646852303139437
2.5083333333333333,0.00157362548634,-0.05778781697154,9.75698566436768,0.006037670712521386,-0.0013107586044523965,3.3752480466007784e-05
2.5166666666666666,-0.00016434758436,-0.05928998067975,9.74787330627441,0.0051212124829924455,-0.0019862552409001637,-0.0018476689150807033
2.525,-0.00176675221883,-0.09928146004677,9.74127101898193,0.00569254636134182,-0.0009794924437283546,-0.0013420524377439152
2.533333333333333,-0.01087929494679,-0.07304484397173,9.74999141693115,0.009066899419040174,7.39872281507589e-05,-0.0022138049310677114
2.5416666666666665,-0.01459895260632,-0.03366843238473,9.76029777526855,0.007349323322466602,0.00046247603096716294,-0.0034172710429919914
2.55,-0.00934161245823,0.03042104095221,9.72617816925049,0.008663434675082344,0.0006214032574003222,-0.005022190744117341
2.558333333333333,0.01073608919978,0.07762981206179,9.76375293731689,0.006174021439441616,-0.0002771726516392702,-0.00595518918058061
2.566666666666667,0.02695191279054,0.18758331239223,9.73793029785156,0.007435157732608052,-0.0003706067261465847,-0.0038102306047319476
2.575,0.02336840890348,0.16442242264748,9.74018478393555,0.006236609366098957,8.605765144017574e-05,-0.0006370501740459942
2.5833333333333335,0.00336914043874,0.09899531304836,9.74324417114258,0.007870140363888587,-0.0012982413572175241,0.0010905852723334117
2.591666666666667,-0.02020678110421,0.04476964473724,9.74979019165039,0.006326912893444609,-0.0035375281105942697,0.0004258176770789778
2.6,-0.01428411528468,-0.02248133718967,9.74919509887695,0.005635323247864651,0.00221849901256334,0.0011174082979375768
2.6083333333333334,-0.00339044746943,-0.06410378217697,9.74993324279785,0.005118530076402359,0.000128974702091848,-0.0020381132811226827
2.6166666666666667,0.01857593283057,-0.06185778602958,9.74803733825684,0.006179386252621788,0.0008102830813204944,0.00035741864969921795
2.625,0.00753179145977,-0.07052701711655,9.74822902679443,0.0072661713189154115,-0.00034691291482336105,-0.0011779838995037886
2.6333333333333333,0.02587183378637,-0.06061319261789,9.75535488128662,0.00889299604015526,0.0018152575424137864,-0.002715845126358573
2.6416666666666666,0.00173814082518,0.01488506607711,9.74119186401367,0.008209899901887807,-0.0015651314502610866,-0.003056052252271561
2.65,-0.01293233968318,0.070248067379,9.72921085357666,0.007348429707085239,0.00017010356295658132,-0.003986816390206946
2.658333333333333,-0.01125142164528,0.11253567785025,9.70643615722656,0.0062030800639451865,0.0024751070671601536,-0.002147194304785219
2.6666666666666665,0.01419839356095,0.12639789283276,9.73177146911621,0.006891988343232276,0.0008786821087002543,-0.0015892724593866226
2.675,0.00135188736022,0.12917318940163,9.75373077392578,0.0074682397069225324,-0.0005020402603094378,0.0005402632538473815
2.683333333333333,0.00886237248778,0.05079233646393,9.74054145812988,0.006782013314076921,-0.001368428395583095,-0.0002516906830383083
2.691666666666667,0.0218233242631,0.00314009794965,9.70846748352051,0.005036719536220605,-0.0014243099156536778,0.00012182186979839042
2.7,9.28814552e-05,-0.02533530257642,9.73286533355713,0.005466784162011476,-0.003238003111001211,-0.0010912557439438247
2.7083333333333335,-0.00684524746612,-0.05174367129803,9.76636409759521,0.005120765675301764,0.0003757477778794221,-0.00012383360159520944
2.716666666666667,0.01871898956597,-0.05348180606961,9.74621391296387,0.006038564848051532,-0.0022607454859493482,-0.0007005316510662957
2.725,0.00963487941772,-0.02042136713862,9.72729396820068,0.0076376724081570705,-0.0010474444033431293,-0.0026309053718958763
2.7333333333333334,-0.00487108621746,-0.0231394469738,9.74570560455322,0.007008669128788628,-0.001647389318282306,-0.0024811426120250426
2.7416666666666667,0.00790389161557,0.03759534284472,9.72986221313477,0.007205372703615403,0.00086437652538669,-0.0031351809060118393
2.75,-0.01974899880588,0.09878075867891,9.74156379699707,0.006150774955957683,-0.0017064000526338303,-0.002536577194367792
2.7583333333333333,0.00599408242851,0.10275059193373,9.72861766815186,0.005691652225811676,-0.0003563010453052437,-0.0019487029790469373
2.7666666666666666,0.01336828991771,0.10351596027613,9.74324417114258,0.00674982547529241,-0.0005664158078411336,-0.0030922637009412886
2.775,-0.01760294660926,0.06019831821322,9.75148391723633,0.006782460121767602,-3.3976004189375146e-05,0.0016516362019757976
2.783333333333333,-0.00466363318264,0.01497089862823,9.75052833557129,0.006839235907405308,-0.0011954190221910002,-0.00016764478777667763
2.7916666666666665,-0.00819000508636,-0.02160873822868,9.72560596466064,0.007155525818149644,-0.0034114594221211388,-0.0014623093753090418
2.8,-0.00614429218695,-0.01401957217604,9.7089900970459,0.005781508945466645,-0.001965243836167026,0.00026979632609990824
2.808333333333333,-0.00773209286854,-0.02033552154899,9.73659420013428,0.007809117564520238,0.0008292828761668397,-0.0009329991516676059
2.816666666666667,-0.01698084920645,-0.01982768066227,9.73112773895264,0.006434653884146558,0.000654261632813648,-0.0011297022713643483
2.825,-0.02254621125758,-0.00453479308635,9.73817920684814,0.006663991065151135,-0.0016040251754837478,-0.0037977127073113145
2.8333333333333335,0.01411255914718,0.05507688969374,9.75707149505615,0.007181232604750107,-0.0020171017463523925,-0.002248675436516613
2.841666666666667,-0.00581526150927,0.0503846257925,9.77003955841064,0.007122668548052286,-0.0011010909747000677,-0.0022003939384143247
2.85,-0.00957077555358,0.09438174962997,9.7435302734375,0.005662146273468815,-4.917580024243612e-05,-0.002696174664846261
2.8583333333333334,-0.00595116522163,0.11498910188675,9.74310874938965,0.007981455816115986,-0.0002288909909904546,-0.0009794924437283546
2.8666666666666667,-0.01310401130468,0.05142178013921,9.73892307281494,0.005780615330085284,-0.0013666401245229795,-2.1905584963433894e-05
2.875,-0.00378385395743,0.01683779247105,9.72495555877686,0.007069020416249347,-0.0011033260534508644,0.0004316293954777818
2.8833333333333333,-0.0036407969892,0.00668790796772,9.73800182342529,0.007581791278198118,-0.0009432813201516821,-0.0008006715144839831
2.8916666666666666,-0.00530025642365,-0.02554995566607,9.74415302276611,0.007267511741987628,-0.0006522498928895287,-0.00023067919703199396
2.9,0.00023604382295,-0.03808888792992,9.72793102264404,0.00540777277747419,-0.0016067074520368563,-0.0010487856716568354
2.908333333333333,0.00030757224886,-0.00638033589348,9.734619140625,0.00715038466888903,-0.0009920100160561076,-0.0027167395219630224
2.9166666666666665,0.01870468445122,-0.00198133755475,9.73999786376953,0.008266452023605955,7.46578054162489e-05,-0.002042136891007899
2.925,-0.01067204214633,0.0297772847116,9.74125671386719,0.007296124078949126,-0.002533447980086851,-0.0023573090023025333
2.933333333333333,-0.00144462171011,0.06480474025011,9.72220993041992,0.0068649416537083785,-0.0005275221801464239,-0.0020631484257783634
2.941666666666667,0.00045051745838,0.0693324804306,9.73677062988281,0.007893386327223913,0.0010512444793457656,-0.0015941902048019836
2.95,0.0076318345964,0.07883143424988,9.7219066619873,0.007463768509123549,0.0011048907906283999,-0.0018803036915928729
2.9583333333333335,0.02055727131665,0.03072146140039,9.75585556030273,0.005979106135674957,-0.0016773418182417167,-0.0024221314875622364
2.966666666666667,-0.01412686519325,0.0308216009289,9.74128532409668,0.007726188184591389,-0.0023827908246117423,-0.0017014825672927733
2.975,0.00268231611699,-0.01790356636047,9.74411773681641,0.005754686440011264,-0.0015231086407948113,0.001439286295670361
2.9833333333333334,0.30655628442764,0.08072708547115,9.75785160064697,0.005793580035196598,-0.002029619383698722,0.010429069906210169
2.9916666666666667,1.0001517534256,-2.27844262123108,9.85572242736816,0.060750328860503494,-0.016236089542236078,0.7818337885944863
3.0,0.1676115244627,-17.93498611450195,9.1531867980957,0.1035806545424056,-0.02335897499227549,0.59315614905537
3.0083333333333333,-2.66982221603394,-15.91473388671875,8.24527359008789,0.02993309009227155,-0.034606800486117,0.1950877850591529
3.0166666666666666,-2.52451395988464,-9.46961116790771,9.61819839477539,0.05344091290294181,0.02247088150895056,-0.04511745674844059
3.025,3.1166045665741,-9.64885330200195,10.52275085449219,0.03333806222042481,0.0048187814128895674,-0.17293071755337083
3.033333333333333,-0.45119416713715,-3.53144073486328,9.42223262786865,0.048703948272018,-0.05810211476204227,-0.2627798638439758
3.0416666666666665,-1.67871820926666,-3.62468528747559,9.05387783050537,0.09967692643754023,-0.02371704948440427,-0.3433889230611985
3.05,0.588414311409,-4.34441375732422,9.45356559753418,-0.007039743329312482,-0.004812972912910543,-0.44381186749909723
3.058333333333333,0.96290153264999,5.26321792602539,9.17871189117432,-0.12057913740481224,-0.0050494636983041885,-0.46747668365602774
3.066666666666667,-0.3279247879982,8.13219547271729,8.81652927398682,-0.020711963477493996,-0.011012256411856377,-0.42660564974928594
3.075,1.85029089450836,3.71702408790588,8.25796508789062,-0.055170344747704214,-0.013131731084801217,-0.34216979449318746
3.0833333333333335,-2.07757377624512,16.43364334106445,9.18576240539551,-0.07657432023148232,-0.009539211038365835,-0.1262271278327603
3.091666666666667,2.34277963638306,7.1894702911377,9.0626220703125,0.07384931554746435,0.0008102832113576466,0.01708121666644291
3.1,-1.76034224033356,4.29196453094482,9.32506561279297,0.06058345685107483,0.004040239037569849,0.09581299594621474
3.1083333333333334,-0.43688076734543,1.10681867599487,9.23437976837158,0.04178087792603204,0.017018180891797498,0.08353426703618734
3.1166666666666667,-0.03908491879702,1.27474236488342,10.01841449737549,-0.029247981498875645,0.02257370865535207,0.07695320483081644
3.125,0.71280199289322,2.65717744827271,10.27367782592773,-0.06312474503176926,0.014983644412869174,0.10894565081501907
3.1333333333333333,1.32575619220734,5.92275524139404,9.84410953521729,-0.004671254251918139,0.013169503239496417,0.22664567805486036
3.1416666666666666,1.00975036621094,-0.49873894453049,9.48911476135254,0.1415720123624446,-0.025288884610471924,0.23864816225844068
3.15,-0.99186652898788,-6.18394184112549,9.36770629882812,0.07396646134591427,-0.02285736443976982,0.21040340810636016
3.158333333333333,-0.18853244185448,-3.27811098098755,8.96585845947266,0.029093074989000975,-0.006315066507931606,0.1528229525064046
3.1666666666666665,-0.19749581813812,-3.21772384643555,9.128586769104,0.05296076992553579,-0.022448752304767724,0.08550978328805131
3.175,-1.18175005912781,-4.20837688446045,9.29117298126221,0.027208744956742345,-0.00652518159556055,0.012820353457911328
3.183333333333333,-0.29884684085846,-2.19110989570618,9.241455078125,-0.01717800280641861,0.020189571946107366,-0.03181540194776651
3.191666666666667,0.28544715046883,0.53300791978836,9.51035594940186,0.02691995426484763,0.006007271664945773,-0.03231699793610991
3.2,-0.24498897790909,-2.02789902687073,9.5365047454834,0.059723784290008027,0.004129649729757051,-0.04165234295273285
3.2083333333333335,0.2970971763134,-2.71962904930115,9.41243457794189,0.017543022323327613,-0.008687129526702959,-0.08078109942364194
3.216666666666667,-0.51244652271271,0.29096016287804,9.56706047058105,-0.0030931575763969545,-0.01034524587060274,-0.10080815404482184
3.225,-0.10684729367495,1.50256478786469,9.39249706268311,0.02137962628515535,0.004657619075196412,-0.08537186483309889
3.2333333333333334,-0.39371427893639,1.0623242855072,9.9252986907959,0.008889420538332422,0.005608947029951168,-0.06158285382320828
3.2416666666666667,0.92437535524368,2.4431312084198,9.75930404663086,-0.0010908086761788395,0.010314623679256004,-0.0374768767093277
3.25,0.22654347121716,2.68595004081726,9.86121082305908,0.025650770751910763,-0.025397512454622625,-0.007663377634311533
3.2583333333333333,0.08946607261896,0.70536142587662,9.63974189758301,0.03272180258299118,-0.014860481534831556,0.006632698402193985
3.2666666666666666,-0.3498241007328,0.45668041706085,9.76168537139893,0.0068691886674390225,-0.025370689429018458,0.0017602698977988698
3.275,0.0513144955039,1.37720119953156,9.37246322631836,0.004308023526217861,-0.004961391088520115,0.0027478095612976567
3.283333333333333,0.17643515765667,0.77844572067261,9.36793804168701,0.022507988913670562,-0.02018174682981066,0.014705575024956714
3.2916666666666665,0.45890095829964,-0.04220648854971,9.33970928192139,0.019218573009691514,-0.007384863519303003,0.028243672242887756
3.3,0.05189466848969,0.33455029129982,9.27797794342041,0.013592862629035071,-0.027692233530267816,0.02764819982611908
3.308333333333333,-0.28009852766991,-0.02233599312603,9.01276588439941,0.02843009559978791,-0.0018132459975453955,0.030633174805610015
3.316666666666667,-0.45482987165451,-0.75648522377014,9.15510368347168,0.02670938768819035,0.005793580035196598,0.022261661077000373
3.325,0.2415729612112,-0.41058033704758,9.16610336303711,0.007952843999303096,0.006245102873411463,-0.008547200697216673
3.3333333333333335,0.34259274601936,0.42882725596428,9.14573097229004,0.015309543549781108,0.006164185948611068,0.005142671215565046
3.341666666666667,-0.76144528388977,-0.03104024380445,9.42013072967529,0.02785518361887248,0.004562396502063879,0.00977279731369549
3.35,0.34682705998421,-0.79800695180893,9.37118244171143,0.02275252327779403,0.01535603651674915,0.0007316018204380821
3.3583333333333334,-0.00334082962945,-0.4851488173008,9.7834358215332,0.016273833608904133,0.005918753807916846,-0.012110211150268762
3.3666666666666667,-0.28651025891304,-0.13852787017822,9.74916362762451,0.02024411265299445,-0.0101002620980452,-0.028140626634053124
3.375,0.05846176669002,0.01199323870242,9.61146926879883,0.016557492514213887,0.006944964442978803,-0.03816579071025001
3.3833333333333333,0.25761306285858,0.69635945558548,9.75919914245605,0.014781127656725545,-0.002853984384413223,-0.03487189944728293
3.3916666666666666,0.11000990867615,1.03055083751678,10.00825881958008,0.018996390473373228,-0.023230650159031155,-0.023966943460221646
3.4,0.17338389158249,0.45988607406616,9.65095233917236,0.020592364658008955,-0.022244895645700483,-0.013597555410159005
3.408333333333333,-0.4272181391716,0.47580745816231,9.58912944793701,0.012570228536093346,-0.014807727018409978,-0.010570561782391014
3.4166666666666665,0.45788186788559,0.70017051696777,9.32183456420898,0.01221817528474166,-0.017616113611682693,-0.005004756401653042
3.425,-0.04629319906235,0.58684068918228,9.19383525848389,0.01773078142196198,-0.018997505672079713,0.012771625932341274
3.433333333333333,-0.75116217136383,0.25364127755165,9.10286808013916,0.019239137606733975,0.011357597665023061,0.025619025039479278
3.441666666666667,0.97761523723602,0.07801625877619,9.02444934844971,0.018456792424631243,0.009117863583807026,0.019531059593504062
3.45,-0.1189877986908,0.02023540064692,9.52996826171875,0.02197420612683987,-0.0005959212400353846,0.010513113444548285
3.4583333333333335,-0.34116914868355,-0.16712617874146,9.24551486968994,0.018894907391084376,0.003662926327457163,0.006936246231449348
3.466666666666667,-0.00595116522163,0.45404100418091,9.45576477050781,0.012943295792921389,0.007791906365826889,-0.0010952792237918887
3.475,0.6406158208847,0.30167832970619,9.86220550537109,0.019016952989821072,0.0031836863281081637,-0.0019844672299145273
3.4833333333333334,-0.04507006332278,0.24966998398304,9.70220947265625,0.018365820506269795,-0.008459132248621819,-0.009128369546247812
3.4916666666666667,-0.31139186024666,0.40040898323059,9.5302906036377,0.011076849511561128,-0.01413133715669213,-0.010367599779002529
3.5,-0.31187826395035,0.59837108850479,9.74217891693115,0.014943857202302303,-0.010474892921716408,-0.0058273319609728836
3.5083333333333333,0.74756509065628,-0.03351822122931,9.61917209625244,0.017147824822019337,-0.013074950617825687,-0.007680813017073223
3.5166666666666666,0.33960875868797,-0.02140223421156,9.54204273223877,0.0059737418426432185,-0.03739685287976006,-0.011533512978887822
3.525,-0.8218759894371,0.53250056505203,9.31475353240967,0.011214093853862545,-0.012453099382400312,-0.011024318659059283
3.533333333333333,-0.0659566745162,0.16250543296337,9.12258434295654,0.01849211467918296,-0.0007729542233126956,-0.008109537219792051
3.5416666666666665,-0.00112982315477,-0.12865108251572,9.65178298950195,0.018723237530504436,-0.0013416051099046254,-0.007901209362926005
3.55,0.24730239808559,0.18096692860126,9.45190238952637,0.011371902793206592,-0.006028953021140541,-0.020854118023055427
3.558333333333333,-0.80074644088745,0.8225411772728,9.4812650680542,0.017190740206569757,-0.005931941656799284,-0.01743907685732762
3.566666666666667,-0.39025211334229,0.55072540044785,9.77517700195312,0.024280104156685044,0.02361176099458902,-0.01418364226467981
3.575,1.26852095127106,0.31960332393646,9.64711761474609,0.017563137511935993,0.008352956905357643,-0.004705676649304664
3.5833333333333335,0.5795806646347,0.54959583282471,9.57383632659912,0.011077744167239707,-0.020409299380795734,0.003161333460005765
3.591666666666667,-0.74991834163666,0.64087325334549,9.35646915435791,0.01452407227428944,-0.010608561762194987,-0.0035598809786968424
3.6,0.42847675085068,0.29085606336594,9.07361698150635,0.011598112320376401,0.0004316293954777818,0.003621797653520858
3.6083333333333334,-0.25184488296509,0.49622121453285,9.72114181518555,0.014512001704708097,0.0017575877512830884,-0.006738425897470088
3.6166666666666667,0.53923851251602,0.20656694471836,9.49717330932617,0.016768949585360876,0.0017962580726603218,-0.008261758722333413
3.625,0.06249430403113,0.31894534826279,9.82960796356201,0.013007223102353555,-0.009370225144821803,-0.0028584553221377286
3.6333333333333333,-0.21649523079395,0.13026055693626,9.73300361633301,0.012476124282559127,-0.017500326441507532,0.00397273388564593
3.6416666666666666,-0.07866697013378,-0.08069121837616,9.39666843414307,0.012682439164148107,-0.008499142602959812,-0.005448901451410495
3.65,-0.67133009433746,0.07338101416826,9.52333068847656,0.011693333853211543,-0.0121070808956906,-0.014027173228259193
3.658333333333333,-0.18717557191849,0.18169145286083,9.22738170623779,0.01611826442964871,0.021817739171014042,-0.01552301255590777
3.6666666666666665,-0.16116786003113,0.65017199516296,9.74834537506104,0.01984087053265896,0.005233422590898596,-0.020492897671888995
3.675,1.60240149497986,0.01457751449198,9.56533336639404,0.02103919523524832,0.012221527122644769,-0.005075613131405939
3.683333333333333,-0.08985604345798,0.40441927313805,9.72317695617676,0.009170169732091749,-0.03189139774618559,0.0027165158580432906
3.691666666666667,-0.32792207598686,0.45360469818115,9.37297058105469,0.01020420236255858,-0.005350774368214144,0.010132228353504587
3.7,-0.05327437445521,0.64605194330215,9.46555709838867,0.006744907989951528,-0.015429129885698669,0.001957867348081311
3.7083333333333335,0.15907226502895,0.45625123381615,9.38278579711914,0.009675338101366159,-0.003930934740099212,-0.002195923000689819
3.716666666666667,0.00404135650024,0.97199982404709,9.30561256408691,0.00974060843461376,-0.018569679245931465,0.005236999653167437
3.725,-0.48227328062057,0.49026301503181,9.63662433624268,0.018604768473887964,0.0025287538985913965,0.012630805047919625
3.7333333333333334,0.73786610364914,-0.09656342118979,9.53737831115723,0.018174258080703633,-0.002532106516717591,0.00796849111100467
3.7416666666666667,0.19163180887699,-0.06582046300173,9.73218631744385,0.007678800561944766,-0.013240808337385992,0.0009765866332928411
3.75,-0.82257694005966,0.55378741025925,9.83266258239746,0.011194425993093452,0.0029181369182109474,-0.013307865901396319
3.7583333333333333,0.49847447872162,0.23367622494698,9.45052909851074,0.01319900919183945,0.008714621983620146,-0.007777376013277799
3.7666666666666666,0.00984267238528,0.4412447810173,9.77806663513184,0.015340837773184256,0.006751166938661845,-0.010783806084300724
3.775,0.05102333426476,0.35735207796097,9.62864971160889,0.007220571967328905,-0.03137818371758657,-0.00691501220309387
3.783333333333333,-0.37541016936302,0.15319961309433,9.41320610046387,0.015164251467560473,-0.001367534390090102,-0.01032825989627495
3.7916666666666665,-0.52707868814468,0.28918227553368,9.83452987670898,0.008935914545597683,-0.0034347061656793774,-0.017797171115105113
3.8,1.48825621604919,0.12105471640825,9.53046226501465,0.006116799366261664,-0.008602636059782336,-0.018269258030213828
3.808333333333333,-0.19415681064129,0.869793176651,9.89435482025146,0.004365917111305444,-0.025950068446543652,-0.010202636715120802
3.816666666666667,0.20306205749512,0.33200636506081,9.37198352813721,0.011088918000547687,-0.014861372029320917,-0.008990676835809714
3.825,-0.43350514769554,0.70455497503281,9.37601184844971,0.009338260969957025,-0.014370062500687964,-0.0018968446787501138
3.8333333333333335,-1.29687416553497,0.90696221590042,9.24271202087402,0.019817626129769634,0.02328675547305845,-0.007123786347501989
3.841666666666667,0.74557656049728,0.39391422271729,8.91529655456543,0.018813541577998694,0.010214930948621878,-0.0033962591181102447
3.85,-0.27276700735092,0.33131164312363,9.43381595611572,0.018553359061876433,0.029312132472227543,-0.0027922916335830694
3.8583333333333334,0.35659068822861,0.441416233778,9.82149696350098,0.013958103729269023,0.010132228353504587,-0.0007725072205661119
3.8666666666666667,0.21921317279339,0.43170267343521,10.20571899414062,0.01472904517236038,0.015008453422899056,-0.005012802060977474
3.875,1.12105798721313,0.00155219098087,10.12033653259277,0.013513733455146011,0.013165478329239675,-0.002285333692877021
3.8833333333333333,0.05454042926431,0.26619306206703,10.15230941772461,0.005149823779656726,-0.021454954212707225,-0.01310579647309198
3.8916666666666666,0.74295085668564,0.31147566437721,9.59824466705322,-0.0013120998077475268,-0.033231664773686914,0.002982735739550919
3.9,-0.88878524303436,0.47786885499954,9.38698959350586,-0.0007801069824601023,-0.037363326178349504,0.003856947235619548
3.908333333333333,-0.97850173711777,0.56787133216858,9.3093318939209,0.005896400939814274,-0.01993229185945431,-0.009760949367736487
3.9166666666666665,-0.47796022891998,0.38903579115868,9.52865123748779,0.010773747449699054,0.009449576942333206,-0.003158874717335237
3.925,0.23509964346886,0.09378092736006,9.7175874710083,0.016877806294917745,0.008496907524209016,-0.009430129624591842
3.933333333333333,1.29784023761749,-0.26759514212608,9.56952476501465,0.010493221919859462,0.0063865952697409155,-0.01257470077418955
3.941666666666667,-0.64834797382355,0.56411612033844,9.95754432678223,0.004950438838537082,-0.01568484536521134,-0.01509741756746988
3.95,1.19627690315247,0.06791649013758,8.90373039245605,0.005285281411344203,-0.007102327614929387,-0.009046559526214666
3.9583333333333335,-1.38801634311676,1.01598310470581,9.41488742828369,0.004943285234148012,-0.01802561207998511,-0.01946109960002453
3.966666666666667,0.14679831266403,0.25527080893517,9.29637145996094,0.010508198039801839,0.002607882032183066,-0.011162012409794775
3.975,-0.5006131529808,0.77713495492935,9.69225215911865,0.012548546659749794,0.01260129909557659,-0.006574804296957795
3.9833333333333334,-0.17560964822769,0.65007156133652,9.8301305770874,0.014230358895567235,0.015457965886579899,-0.013330217729201673
3.9916666666666667,0.15956550836563,0.64841479063034,9.959716796875,0.021931289701992235,0.037722981922375554,-0.005586818345916935
4.0,1.1494687795639,0.21883408725262,9.90500545501709,0.009362401068822322,-0.00355496349335596,-0.00219860566735421
4.008333333333334,-0.20369866490364,0.53536170721054,9.95168590545654,0.014034103688877142,0.020376889958686275,-0.007269077909573838
4.016666666666667,0.73272293806076,0.42305490374565,9.90940570831299,0.0011115965470293973,-0.021062441718732252,-0.00785069252599844
4.025,-0.34811416268349,0.53688532114029,9.98921680450439,0.009035157867797733,0.0007137196299858855,-0.009545915754469442
4.033333333333333,1.00888705253601,0.16369996964931,9.60568904876709,-0.0035706100849087516,-0.0278688198358916,0.003998215707954964
4.041666666666667,-0.31358388066292,0.38777577877045,9.51646423339844,-0.0021668647662977055,-0.04180971496721049,-0.0026125766338273033
4.05,-1.10062944889069,0.74013328552246,9.45404148101807,0.005405985026562857,-0.004483491512243157,-0.005173293927060392
4.058333333333334,0.27112874388695,0.20228952169418,9.37448883056641,0.0071830198355128305,-0.0020998066821385974,-0.002047948511878926
4.066666666666666,-0.24080760776997,0.59803491830826,10.0981616973877,0.009537199103385989,0.0005170164452705671,-0.004882262434779662
4.075,0.63660299777985,-0.01147316023707,9.76473236083984,0.00815625229023365,0.013989843199916852,-0.0003522775329478045
4.083333333333333,-0.04821014404297,0.63003659248352,9.60437393188477,0.001674435877769051,-0.013285064665157238,-0.0021878757809193866
4.091666666666667,-0.03696589171886,0.27549174427986,9.38133239746094,0.0052217988290081075,-0.004754852543011401,-0.008858348938551787
4.1,-0.16501608490944,0.53502547740936,9.13788604736328,0.00300397054812931,-0.018266126735338273,-0.011656899520845173
4.108333333333333,-0.87435638904572,0.47858956456184,9.29564189910889,0.007422639835187418,0.005054601726672801,-0.006620404168693084
4.116666666666666,0.40687549114227,0.244534522295,9.50016307830811,0.012728708467196244,0.012848965794872826,-0.010251365280988077
4.125,0.27120718359947,0.16482296586037,10.00818634033203,0.01105315570023773,0.016382918143569954,-0.01062688972004082
4.133333333333334,0.42985683679581,0.36179766058922,9.82731246948242,0.007866786965539305,0.005361950282116735,-0.010119262087947273
4.141666666666667,-0.89230871200562,0.8325098156929,9.9285192489624,0.013702166666431403,0.027701178006460214,-0.008964524801964571
4.15,1.01383650302887,0.28571999073029,9.33701324462891,0.008145077936776888,0.009441977570550672,-0.007822083309928944
4.158333333333333,-0.14940150082111,0.47811725735664,9.86542892456055,0.010834545544850456,0.022137376758472264,-0.008962512866984722
4.166666666666667,-0.28856000304222,0.80271351337433,10.2606315612793,0.00386544178322927,-0.0031508274975648046,-0.011399845178706462
4.175,0.67548584938049,0.30502584576607,10.00581836700439,0.005347868817852935,0.0021599354760141283,-0.006413418815493689
4.183333333333334,0.35513150691986,0.47550669312477,10.2579345703125,0.0015926254676242736,-0.014444720476778044,-0.004391846001379464
4.191666666666666,0.63861179351807,0.28094786405563,9.99948120117188,-0.0044356576020544635,-0.0301894692814622,-0.0048397928176227055
4.2,-0.36189809441566,0.55553269386292,9.70087146759033,-0.004073544415729759,-0.01560258905763612,0.0021170185310177073
4.208333333333333,-0.32599082589149,0.42432808876038,9.52981090545654,-0.001147584331779393,-0.021586387454286402,-0.003157533253965803
4.216666666666667,-0.56267881393433,0.36283499002457,9.65676593780518,0.004993355263384894,0.0011491490689569284,-0.0023304857166240637
4.225,-0.01454888284206,0.14970900118351,9.26697254180908,0.003579997987825706,-0.0009893276744845979,-0.00016675066850130757
4.233333333333333,-0.11385180056095,0.20776863396168,9.50551986694336,0.011400291466248534,0.016579397014179778,-0.000563509932387044
4.241666666666666,0.13565365970135,-0.0553701557219,9.68066501617432,0.0055240067553398615,-0.0039206524415779835,-0.004209001007119843
4.25,0.33592611551285,-0.04561368003488,9.4955997467041,0.0016321895344201954,0.004075332686789874,-0.010101156753723953
4.258333333333334,-0.39945766329765,0.62847024202347,9.94024181365967,0.002906513156320459,2.7493741034281903e-05,-0.011057849521659053
4.266666666666667,0.641810297966,0.39346358180046,9.81908702850342,0.004240071566603086,-0.004444151109366967,-0.01172038054273544
4.275,0.07662808895111,0.60515886545181,9.87356853485107,0.006385030142451748,0.0029762533869951745,-0.0029438421443654106
4.283333333333333,-0.38243389129639,0.71112847328186,9.86724662780762,0.002068065781082093,-0.007835269078216597,-0.0075259091079416
4.291666666666667,-0.35793462395668,0.79343640804291,9.74099636077881,0.012253716001726497,0.03280473092262281,-0.003888688526787508
4.3,0.07085606455803,0.71037030220032,10.03806400299072,0.007494168596996554,0.0027969849348557854,-0.00506063701146356
4.308333333333334,1.04211914539337,0.22379815578461,9.81022453308105,0.0024567783290914058,0.004028615535753665,-0.003807995005832542
4.316666666666666,0.00422033108771,0.66376906633377,9.96519184112549,0.0018161518079809092,-0.006284220132516528,-0.004204978177457541
4.325,0.0909054800868,0.59160447120667,9.64120960235596,0.0016435892422796696,-0.01473575196905877,-0.007588272850530775
4.333333333333333,0.00508567132056,0.38415774703026,9.50882530212402,-0.0005766980413437861,-0.0028709729594840576,-0.004692712984490566
4.341666666666667,-0.19712507724762,0.53844499588013,9.56836414337158,-0.001248618265708649,-0.0056154291224326065,-0.00437932810395883
4.35,-0.21680982410908,0.77486032247543,9.6234130859375,0.004165414370736097,0.0114505867198508,0.003623586444729757
4.358333333333333,0.16465158760548,0.51830244064331,9.98989677429199,0.005806991547998768,0.00463481887925455,-0.010185648660198578
4.366666666666666,0.30654940009117,0.28324541449547,10.11722469329834,0.00801811381240209,0.017983812934438563,0.001621683702016387
4.375,0.06537689268589,0.54182744026184,9.97682857513428,-0.00037641841203618794,-0.0017891049884198602,-0.0035701630171437663
4.383333333333334,0.01380498707294,0.48864647746086,9.84917163848877,0.0026744925284284057,0.0004727582644698153,0.004530208663279367
4.391666666666667,0.06827388703823,0.1776265501976,9.89032173156738,0.007094056211090613,0.011702276248809339,0.006956363500652516
4.4,0.22409854829311,0.27230852842331,9.91487121582031,-0.003091816633176129,-0.014332510889020498,-0.0033426133269762186
4.408333333333333,0.27495527267456,0.13686965405941,9.77321529388428,-0.0011252317237511245,-2.503495569534026e-05,-0.002457001993011138
4.416666666666667,-0.12789997458458,0.38875702023506,9.8485689163208,-0.0026930457106396242,-0.017762298268987297,-0.00030041942770670947
4.425,-0.18934290111065,0.2802412211895,9.62605285644531,0.0028492905629918983,-0.004652030598096508,-0.0014649919119362799
4.433333333333334,-0.77012491226196,0.61938637495041,9.71948337554932,0.0046810892226000775,0.0020922069202447815,-0.008242758212282732
4.441666666666666,0.48072737455368,0.17439870536327,9.48447704315186,0.009089252287142748,0.02772062116301236,-0.005586371018077645
4.45,-0.72629261016846,0.76600509881973,10.24094867706299,0.010488079730301454,0.02630882953489095,-0.0006124622271926254
4.458333333333333,0.59151864051819,0.12422342598438,10.11442756652832,0.005338479614564459,0.01548612985540489,-0.006848847734316298
4.466666666666667,1.24194097518921,-0.06946125626564,9.81556034088135,-0.006011070830688345,-0.010050639916796389,-0.014749163481860764
4.475,-0.55079656839371,0.60048234462738,9.81007862091064,-0.009182909212837506,-0.02850274164089831,-0.006390171811861146
4.483333333333333,-0.19313390552998,0.8823818564415,9.47950553894043,-0.004417775411602267,-0.010493670287995967,-0.0013527815439558246
4.491666666666666,0.02057158201933,0.54292237758636,9.84330463409424,-0.0003951946079813774,-0.008131441719757944,-0.0015271321206428749
4.5,0.48932591080666,0.18170414865017,9.76631259918213,0.0008885172744379214,-0.002912548441111044,0.004489527317182526
4.508333333333334,-0.12006761878729,0.28836685419083,9.9294548034668,-0.004532667405949895,-0.004246106331245237,-0.0008449295977567834
4.516666666666667,-0.41099521517754,0.40937149524689,9.82777690887451,0.0007682600767984905,0.013277241629455148,0.0012238067849727008
4.525,0.09307994693518,0.42602333426476,9.56152725219727,-0.00025884355596826684,0.006891988343232276,0.0012962294222376763
4.533333333333333,-0.03974127396941,0.43459212779999,9.76734924316406,0.002718751456942695,0.008665000322520119,-0.0038723706834013906
4.541666666666667,-0.27968335151672,0.45652282238007,10.14745044708252,0.003932052279474609,0.012043376209880777,-0.004113778954135919
4.55,0.35817861557007,0.05948304384947,10.08549404144287,0.0012376654955770078,0.0020432546904577756,-0.011320270757572722
4.558333333333334,0.16689012944698,0.04893975332379,10.23562526702881,-9.25399145954435e-05,0.014430191684674949,-0.014135359986354436
4.566666666666666,0.41022288799286,0.21248985826969,10.09015846252441,-0.01047265836311422,-0.01703494632309738,-0.016599962651519626
4.575,0.21769677102566,0.58797085285187,9.87686729431152,-0.005870249426117914,-0.006624426998355213,-0.010810629109904716
4.583333333333333,-0.23043610155582,0.52641326189041,9.79433917999268,-0.005115176678053252,-0.016776099548709338,-0.006235938374339936
4.591666666666667,-1.58804559707642,0.68462008237839,9.99907398223877,0.010247566115245504,0.02188568931010851,-0.007419734804974818
4.6,0.88346898555756,-0.03124376572669,9.37631702423096,-0.00012651591065734392,0.011184587901519685,-0.003081534074580596
4.608333333333333,-0.05197970941663,0.43195304274559,9.71070671081543,-8.85164347473796e-05,0.01754167825921496,-0.007269971004806591
4.616666666666666,0.10664183646441,0.49148589372635,9.64318370819092,-0.0010300096057487983,0.0015640140409228407,-0.006009283079776838
4.625,0.07225091010332,0.34960970282555,9.77542686462402,0.003360942325119271,0.015615998489843678,-0.005727191902499469
4.633333333333334,0.35129043459892,0.29318788647652,9.98114109039307,-0.004663206511999099,0.006605650672372871,0.0024887425039561853
4.641666666666667,-0.05470494180918,0.6938973069191,10.22632694244385,0.0006645439313348764,0.014091327322502921,0.007733342309129068
4.65,1.19822251796722,0.12355798482895,10.10728740692139,-0.0021503235190661603,-0.008218170265429363,0.003257896716284646
4.658333333333333,0.0663854777813,0.22258923947811,10.1414737701416,-0.006594028470928209,-0.009152511725707893,-0.0008583413056146816
4.666666666666667,-0.18252737820148,0.63526612520218,9.83919334411621,-0.014590458846540744,-0.0270887133735801,0.00163643628807636
4.675,-1.07163894176483,1.15684354305267,9.9253568649292,-0.003684608984023627,-0.004086061793001783,0.0042695775189461205
4.683333333333334,-0.03499986231327,0.2979311645031,9.935715675354,0.008200958546587405,0.036166339298088976,0.0019560792070583482
4.691666666666666,-0.08722891658545,-0.16667555272579,10.34090042114258,0.003463541126263215,0.010369611713982204,-0.0003858065425180707
4.7,1.51198196411133,-0.27790966629982,9.82050323486328,-0.01304008193289709,-0.0155873871931794,-0.013561791029254262
4.708333333333333,-0.19054459035397,0.30117043852806,9.79362297058105,-0.010459693137854123,-0.006412972007803007,-0.014894009276539326
4.716666666666667,-0.30988267064095,0.40963587164879,9.57573223114014,-0.0023197566104121545,-0.01575056302629823,-0.01754279761911066
4.725,-0.6307018995285,0.37026691436768,9.55556201934814,-0.000831518019936212,0.0021599352159398237,-0.022561855507906625
4.733333333333333,-0.19638845324516,0.18446466326714,9.6058177947998,-0.0047660289770625995,-0.0007027668598542442,-0.02297940379672269
4.741666666666666,-0.97497582435608,0.48254799842834,10.06628894805908,0.00023626733278441696,0.023424892390444187,-0.018371182198558135
4.75,0.93728053569794,0.06651017069817,9.96814346313477,-0.0003098075581885922,0.028618528811073303,-0.01898588347063505
4.758333333333334,-0.60926485061646,0.49598526954651,10.40052700042725,-0.001810563720992462,0.017460314526723707,-0.006601627842710743
4.766666666666667,1.06302690505981,0.27812400460243,9.71746635437012,-0.00461805500840049,0.017804769446590252,-0.00720067836204547
4.775,-0.46375462412834,0.82152545452118,10.16510677337646,-0.0013626167747120678,0.012547654084665651,-0.00032545440981586265
4.783333333333333,0.79289263486862,0.23233865201473,10.18829536437988,0.004954461668199386,0.022154816302423174,0.01649646867454832
4.791666666666667,0.61021620035172,-0.00750333210453,10.42964649200439,-0.0033260723398189783,-0.00680011916844885,0.004519479557067457
4.8,0.06233702600002,0.31719282269478,10.27884960174561,-0.013598450065837582,-0.013537650930388967,0.0009877629373070624
4.808333333333334,0.1977975666523,0.58035308122635,9.96552658081055,-0.009870477069052553,-0.012592134076356455,0.005880308060719409
4.816666666666666,0.16553825139999,0.37783461809158,9.83060264587402,-0.006264996998843506,-0.023096083541981827,0.004756417150151783
4.825,0.10858714580536,-0.07184676826,9.52938175201416,-0.009705961333010287,-0.029563597296969134,-0.00017390350892206534
4.833333333333333,-1.30373442173004,0.41524398326874,9.70612144470215,-0.012135692192354884,-0.019222819503273376,-0.007862763615728394
4.841666666666667,0.36375072598457,0.09011848270893,9.35473728179932,-0.005374468179537369,0.011861873459213504,-0.0035880449475218334
4.85,-0.45327565073967,0.20098774135113,9.92361831665039,-0.005476395468773682,-0.004426715726605452,-0.011287634550651703
4.858333333333333,-0.42161002755165,0.36342164874077,9.95752239227295,-0.0040181098333870085,0.020779233262153793,0.007398051888334049
4.866666666666666,0.09269373118877,0.43943792581558,10.07053756713867,-0.00027493744285132175,0.033893972130843567,0.002213134199382994
4.875,0.32081216573715,0.03878271579742,10.21103382110596,0.00038558297612629,0.009807665998624086,-0.024428300748969494
4.883333333333334,0.84322720766068,-0.02891894429922,10.00179862976074,-0.0058009557430594,0.01657515052059792,-0.01283488329031181
4.891666666666667,-0.7827570438385,0.75504696369171,10.26854228973389,-0.01454754242169311,-0.009738596499634088,-0.0034360471089000286
4.9,0.2035341411829,1.02754163742065,9.93021297454834,-0.0035312694219582575,0.01995039927427224,0.007356476926855672
4.908333333333333,0.02787462808192,0.36698377132416,10.16346740722656,0.0021885465126039298,0.004291035211221331,0.0038033009243369133
4.916666666666667,0.05413986742496,-0.18361347913742,10.17700099945068,-0.0001850798291907125,0.013263830116652978,0.01285388223991649
4.925,0.99439537525177,-0.1622050255537,9.92017078399658,-0.013467462071503265,-0.0033068486859973473,0.007797270138709843
4.933333333333334,-0.29722207784653,0.48084989190102,10.10222625732422,-0.010455221940055314,-0.0224384720868411,0.001570719797324013
4.941666666666666,-0.34413042664528,0.25248819589615,9.77221393585205,-0.0034534819715131095,-0.0011131612842071076,0.0012323008124339881
4.95,-0.34906589984894,-0.02652989514172,9.62339210510254,-0.005243928033190948,-0.004301988501501581,-0.010950110091403105
4.958333333333333,-0.90942674875259,0.4189205467701,9.8130350112915,-0.005547924750731601,0.02191161976062853,-0.013848800732170081
4.966666666666667,0.70877057313919,0.08313585072756,9.64841365814209,-0.0016431420444773578,0.03510213180411487,-0.01216318620971807
4.975,-0.13748490810394,0.2520235478878,10.16680812835693,-0.0046694654607094144,0.011453267565995061,-0.019377946556175946
4.983333333333333,0.4381687939167,0.40572386980057,10.13246726989746,-0.006452759218369879,0.020430981257139286,-0.013160784507818352
4.991666666666666,0.10106245428324,0.63677966594696,10.36366653442383,-0.004306458919077478,0.031459324826455304,0.0019069033133517848
5.0,0.42304775118828,-0.08612738549709,10.48108959197998,0.0025421654113933923,0.00873116323085169,-0.0036627029236119104
5.008333333333334,0.27356067299843,-0.41764694452286,10.33302402496338,-0.0090541588979972,-0.01659772601232283,-0.010712724650330706
5.016666666666667,0.09160529077053,-9.37981531e-05,9.91302013397217,-0.02251312798233657,-0.01934933421921445,-0.009655444496082724
5.025,-0.24005655944347,0.70534896850586,9.73241519927979,-0.015900099521506287,-0.01721801472120243,-0.003387989274717473
5.033333333333333,-0.58606106042862,0.40303409099579,9.83526611328125,0.0016266014474317482,-0.0008315180849547882,-0.003680585114064107
5.041666666666667,0.04262348264456,-0.34824299812317,9.91886901855469,-0.002516459665090321,0.0028403492076914953,-0.0033381429094003216
5.05,0.37009519338608,0.01610818877816,10.05208873748779,-0.017548608719832905,-0.00772641236865973,0.0012470535285311135
5.058333333333334,0.55847251415253,0.53761488199234,10.05736351013184,-0.014181407706077623,0.0026651051456600605,0.0003583127852291884
5.066666666666666,-0.14037454128265,0.4275898039341,10.32327651977539,-0.002686339694164322,0.0037818424518387904,-0.0003500422591412799
5.075,0.12068268656731,0.09439594298601,10.15108489990234,-0.009342060135699597,-0.014747376251098041,0.004187766978764366
5.083333333333333,0.13100431859493,0.61244785785675,9.95596313476562,-0.014203312206043511,-0.020943972662115787,0.012727814851814881
5.091666666666667,-0.37676903605461,0.64087343215942,9.93556499481201,-0.004474997484782045,0.0011840191842943733,-0.001011680347531442
5.1,-0.94317388534546,0.09267223626375,9.9788236618042,0.0009479752716099845,0.0036580088421162807,-0.011459302330637036
5.108333333333333,0.56981682777405,-0.42199620604515,9.62348365783691,-0.008043372230865696,0.005471701127203749,0.0015228851069124059
5.116666666666666,-0.08639919012785,0.01752446591854,9.90565776824951,-0.008469861874982337,0.016516589064643317,0.0171750972560574
5.125,-0.37231978774071,0.01926975883543,10.11769676208496,-0.0024838250186151284,0.012850306738093651,-0.0006298972848614353
5.133333333333334,0.61232632398605,-0.29214361310005,9.84575366973877,-0.004233142406356836,0.014309038661022398,0.0014652151857445551
5.141666666666667,-0.17297004163265,0.10895925760269,10.01257801055908,-0.014151678089815031,0.005391455714310985,-0.00404202704855566
5.15,-0.32003971934319,0.86782568693161,10.00020217895508,-0.014741117822536334,0.0054151500457829925,0.0006240856639904081
5.158333333333333,-0.17034494876862,0.91659390926361,10.11505699157715,-0.002727021560409947,0.022665350525175147,-0.005298468219929249
5.166666666666667,0.27463340759277,0.19424259662628,10.21257877349854,0.0004892991866084801,0.010054439082538962,-0.009026442257011673
5.175,0.43686020374298,-0.12948100268841,10.17234325408936,-0.010452762677236176,0.007854715875809352,-0.006701096389276527
5.183333333333334,0.00138049863745,0.11043274402618,10.24062538146973,-0.013036505390776859,-0.001777034678912995,-0.011499985237179877
5.191666666666666,0.26166525483131,0.0086693353951,10.00129795074463,-0.002398437936313143,0.0023821203530013297,-0.016206108174026613
5.2,-0.34827193617821,-0.43920600414276,9.996262550354,-0.0027688212261050985,-0.0018836565697935466,-0.014612588050723584
5.208333333333333,0.11977435648441,-0.43088009953499,9.81437301635742,-0.011803533586583849,0.006987210916364809,0.0013024881108736888
5.216666666666667,-0.04388269037008,0.20882725715637,9.95504760742188,-0.01703673251356289,-0.004564855244734232,-0.004316294149833721
5.225,-0.0876223295927,0.52535486221313,9.99699211120605,-0.00909036956644384,0.004063038193214494,0.0032377791870071746
5.233333333333333,-0.18915009498596,0.46979168057442,10.14051246643066,-0.007257006819843885,0.00420833053550943,0.0043187528925040745
5.241666666666666,-0.1755665242672,0.2913710474968,10.28791999816895,-0.00356569259956787,0.01906165872602622,0.007880422142261033
5.25,0.81989455223083,0.01547882799059,10.11778831481934,-0.005611853620609768,0.005578100654536265,0.0018863392364579367
5.258333333333334,0.42936369776726,-0.21658092737198,10.28889274597168,-0.008894114359753747,-0.011191964649679705,-0.0034168237151527016
5.266666666666667,0.0456065274775,-0.2342341542244,10.20855140686035,-0.008829738682184897,-0.011909038458237611,0.010961734373442375
5.275,-0.19661025702953,-0.17397879064083,10.05163860321045,-0.010065839700658673,-0.021272111559116343,0.00786745847744711
5.283333333333333,-0.82847839593887,-0.00484239403158,10.10888385772705,-0.008029290766601896,0.003081087266889915,-0.02355990217414359
5.291666666666667,-0.02422645129263,0.15826347470284,9.89436340332031,-0.010444492313694794,0.015415495749274335,-0.01939314529974084
5.3,0.02141561172903,0.50701498985291,9.91848945617676,-0.010684560681505889,0.007684166415422331,0.004781006137302544
5.308333333333334,0.2193066328764,0.58473759889603,9.89296245574951,-0.008054102897523606,0.004005145908498607,0.006128198423935378
5.316666666666666,-0.0974145680666,0.15077477693558,9.98463916778564,-0.002852643441192397,0.0028367729256455693,0.012718873496514477
5.325,-0.10231617838144,-0.22525680065155,10.04362297058105,-0.004580055548745126,0.005511042050228548,0.028786395344721456
5.333333333333333,0.43594431877136,-0.3775127530098,10.00463104248047,-0.0060459410760629415,0.00014015104674257027,0.01019749660615758
5.341666666666667,-0.19744707643986,-0.51233667135239,10.1089916229248,-0.00872646940943054,-0.001342052307706763,-0.01635542308590955
5.35,-0.15672563016415,-0.16835656762123,9.89153861999512,-0.013382300213566836,0.004664101167677677,-0.021487365715411294
5.358333333333333,-0.01689470745623,0.47491270303726,9.8758659362793,-0.012871543367192522,0.009845218650588945,-0.021549284210755616
5.366666666666666,-0.08143511414528,0.62377083301544,9.9955472946167,-0.007465779403806004,0.0051793286917023685,-0.023654452715219713
5.375,0.02311062440276,0.29600629210472,10.03398704528809,-0.008008502505639881,0.005064437217503348,-0.023479655720953434
5.383333333333334,0.01279643643647,0.34222060441971,10.0159330368042,-0.011365198077102814,0.007556979147276409,-0.005459631597919622
5.391666666666667,-0.07128539681435,0.28174367547035,10.0219898223877,-0.00721408987484764,0.016348049458641354,0.009919877666976239
5.4,0.01474200934172,-0.21547223627567,10.09374141693115,-0.0032241442703597515,0.01856632324683914,0.009272990636709423
5.408333333333333,0.10244318842888,-0.47213798761368,10.06377124786377,-0.0065940274306309915,0.009544799515465741,0.011780062398882964
5.416666666666667,-0.03651526197791,-0.40166789293289,10.10392761230469,-0.007040856447424356,0.006765248923074253,0.008395649666285723
5.425,0.09169944375753,-0.28008386492729,10.19822311401367,-0.009965253354643013,0.006102941045768988,0.002602517739151328
5.433333333333334,0.26103585958481,-0.09447474777699,10.22791481018066,-0.013208618418007046,-0.0006594027820742621,-0.011812920189129104
5.441666666666666,0.21732501685619,0.32220703363419,10.24495220184326,-0.014296747548413324,-0.00462833678677311,0.00591204909181324
5.45,0.0357427559793,0.61798417568207,10.10358333587646,-0.006160385742571105,-0.007844881425276198,0.015624939845144084
5.458333333333333,-0.00327600212768,0.12359397113323,10.03621864318848,-0.0020832656949813563,-0.009045663830238694,-0.012892106923937588
5.466666666666667,-0.00915563851595,-0.4141853749752,9.85475063323975,-0.0030073236864042877,-0.008979054634365052,-0.01704164999890377
5.475,-0.21447080373764,-0.38783431053162,9.6915168762207,-0.011294786594594772,-0.010024263178734298,0.00047588767380631037
5.483333333333333,-0.46531388163567,-0.22361932694912,9.57872295379639,-0.007582014942117676,-0.0039604404323677666,0.002284439557346876
5.491666666666666,-0.42828363180161,-0.24528528749943,9.53716468811035,-0.0071863716734161115,0.0008581176416949494,0.0011147258913474908
5.5,-0.4100653231144,-0.0822791531682,9.599365234375,-0.01202706018701479,0.016521059222144908,0.0069563640208011234
5.508333333333334,-0.3893817961216,0.38140249252319,9.69899749755859,-0.012912225233437971,0.027050938097992906,0.014077913729106314
5.516666666666667,-0.24042987823486,0.47798007726669,9.86194801330566,-0.006775083373607582,0.03473487980919829,0.0006328031603155248
5.525,-0.02522136829793,0.11901521682739,10.06744575500488,-0.004067285467019442,0.043415746746150494,-0.006641415573426221
5.533333333333333,0.20327334105968,-0.23626470565796,10.27289772033691,-0.007188607792464125,0.038987246909674145,-0.008480589940897029
5.541666666666667,0.45648810267448,-0.21036906540394,10.42538738250732,-0.01191887134832494,0.03479567894464708,-0.01432803969122169
5.55,0.34879139065742,-0.17152765393257,10.56178855895996,-0.006862259247118293,0.0220345579344492,-0.019673894493500165
5.558333333333334,0.29028370976448,-0.31699222326279,10.6198616027832,-0.0067612255732633405,0.01562717440374627,-0.017822652157191234
5.566666666666666,0.23562893271446,-0.29503327608109,10.65769195556641,-0.009247285930703744,0.009313226215412975,0.001113831885854498
5.575,0.343057513237,0.09465356916189,10.62079906463623,-0.014412532637993703,0.006613474228223746,-0.0025857528280000507
5.583333333333333,0.62440741062164,0.36676201224327,10.57293224334717,-0.008075113261959525,-0.0066382863591452805,0.008586318476470522
5.591666666666667,0.80367243289948,0.31739857792854,10.54107761383057,-0.00478257022429432,-0.02812006411760528,0.011253211112967785
5.6,0.01775369048119,-0.05630072951317,10.6408805847168,-0.0011578666303006212,-0.04468739368309572,0.00637005402250937
5.608333333333333,0.04382110759616,-0.37222376465797,10.39100646972656,-0.0027878206958585634,-0.03739819694387271,-0.00044347630113939374
5.616666666666666,0.09876255691051,-0.3058922290802,10.28056335449219,-0.005720933473937761,-0.03726944558873502,0.010374528159025868
5.625,0.09068688750267,-0.35613772273064,10.10081005096436,-0.0009405989135614218,-0.04594360260809683,0.011740274148018877
5.633333333333334,-0.21106441318989,-0.42314752936363,9.86033058166504,-0.0028016792764257187,-0.035199595177633415,-0.014758998452542705
5.641666666666667,-0.04754400625825,-0.2092572748661,9.57246208190918,-0.010177601960576751,-0.0333841078595534,-0.01978252857943487
5.65,-0.28439256548882,0.31794819235802,9.56356048583984,-0.006827835809434377,-0.04029420569819821,-0.013209961441822309
5.658333333333333,-0.57571089267731,0.43658807873726,9.51149272918701,-0.0045259616495488975,-0.02155464798363857,0.01028869530933042
5.666666666666667,-0.24902638792992,0.13399395346642,9.60430145263672,-0.0036644909345975463,-0.004259518364195841,0.01238134903726588
5.675,-0.5238670706749,-0.29821634292603,9.84488677978516,-0.0022093345134918145,-0.0024561075974066887,0.015381965926971781
5.683333333333334,-0.23858307301998,-0.43757516145706,9.72906112670898,-0.004144178781934619,0.009011688760691462,0.015716137508019878
5.691666666666666,-0.22015735507011,-0.38626781105995,9.67414855957031,-0.005779497530635581,0.003899417372925113,0.011681712692064276
5.7,-0.34867963194847,-0.48706570267677,9.79517459869385,-0.008274051395388313,0.016216166808628283,-0.006081258129128219
5.708333333333333,0.12945930659771,-0.28835254907608,9.87643814086914,-0.007432698469788913,0.01180465086588494,-0.013795598887909214
5.716666666666667,-0.46683052182198,-0.14542415738106,10.25164222717285,-0.012331502151800122,0.022101168170620234,-0.012119152505569164
5.725,0.50889074802399,0.25252428650856,10.14524364471436,-0.009806548719322992,0.024534477652679673,-0.014882384994500054
5.733333333333333,0.25516337156296,0.23669472336769,10.32989978790283,-0.007127809177164117,0.01769725263995682,-0.014091101577988752
5.741666666666666,1.09938490390778,0.18673947453499,10.09222602844238,-0.0011413256431433802,-0.0027337275768852484,-0.007623589903596053
5.75,-0.29609909653664,-0.39472249150276,10.37587833404541,-0.0011551842237105352,-0.01061660846181681,0.0022600750143389353
5.758333333333334,-0.10723548382521,-0.52510464191437,10.23280143737793,-0.005757145182681617,-0.0037136670883785887,-0.0007313782215371007
5.766666666666667,-0.43012189865112,-0.43193873763084,10.31892013549805,-0.0061416099367373736,0.00391998196996757,0.004412633742193044
5.775,0.85533684492111,-0.25903305411339,10.04304790496826,-0.0021199239513417646,-0.012577827907875707,-5.4093379047619605e-05
5.783333333333333,0.40736871957779,-0.39404296875,9.96831607818604,-0.0008842703907444298,-0.02144601181710943,0.015794597770744354
5.791666666666667,-0.56671333312988,-0.28922379016876,9.82045364379883,-0.0010286682724165162,-0.030568570262634997,1.1176318237432964e-06
5.8,-0.40251192450523,-0.25674414634705,9.73630714416504,-0.006258291242442508,0.0014620858414264618,-0.004388269459259232
5.808333333333334,-0.09154959022999,-0.04876115918159,9.88226127624512,-0.006341443245993698,-0.0040659440036500075,0.006144516007247192
5.816666666666666,0.33719217777252,0.39413595199585,9.93418312072754,-0.009330437934254936,-0.004728029517407236,-0.001908020982764335
5.825,-0.2666007578373,0.3369275033474,10.20052623748779,-0.002558482734630901,0.005357256460695411,-0.014788057077046272
5.833333333333333,-0.44942742586136,-0.27007704973221,10.21131229400635,0.0007673660062869216,0.004648230392056545,-0.013982914819893513
5.841666666666667,0.39603862166405,-0.33604770898819,9.96255111694336,-0.0022500163797374386,-0.0011341728189773975,0.0016529774052707533
5.85,0.05234422534704,-0.44072231650352,10.16696548461914,-0.007990621355484728,0.0016167662166755047,0.015214770385082647
5.858333333333333,-0.53714990615845,-0.32190653681755,10.19858074188232,-0.004866616363375479,-0.0023859205590411174,0.0049982727487257765
5.866666666666666,0.22636602818966,0.01780342683196,9.90989208221436,-0.004589443191587601,-0.0025629531522067977,0.013670649819405913
5.875,0.7007640004158,0.13046070933342,9.80908012390137,0.00015803313966698994,-0.004164743378977076,0.020839137741923832
5.883333333333334,-0.84460055828094,-0.4131124317646,10.24305725097656,-0.0005905566869295173,0.0022354870674855666,0.011468466309559952
5.891666666666667,0.24400493502617,-0.09712845087051,9.75951766967773,-0.0024798014087299126,-0.0013442875164947111,0.013818621707473416
5.9,0.43602299690247,0.01546444650739,9.59759140014648,0.0021541234650316442,-0.013972632521372286,0.015008677086818615
5.908333333333333,-0.67164492607117,-0.80315715074539,9.93955612182617,0.0020843833643939065,0.010884169806693874,0.003486340802056469
5.916666666666667,-0.13591116666794,-1.10422730445862,9.93022727966309,-0.002979159977653601,0.011576655148249803,-0.006843483961433168
5.925,-0.07798744738102,-0.64772570133209,10.04015254974365,-0.010697971154010666,0.009146923248607814,-0.023585605839852055
5.933333333333334,0.28241568803787,-0.06752999126911,10.13399028778076,-0.00452104416420784,0.009964581322586773,-0.023240035721279022
5.941666666666666,0.05761713907123,-0.46507257223129,10.24259948730469,-0.0018288925890983616,0.014882384994500054,-0.0338244553040141
5.95,0.73524069786072,-0.29823064804077,10.01491737365723,-0.006134457892794303,-0.000994692357627792,-0.022521623050094898
5.958333333333333,0.3124004304409,0.23776765167713,10.00892353057861,-0.0073913461319330504,-0.015093617361429919,-0.012255279568569661
5.966666666666667,-0.63922095298767,0.47552099823952,10.19945335388184,-0.006321325456641921,0.0008409061829272956,-0.009329096991034283
5.975,-0.38455107808113,0.43399846553802,10.12462139129639,0.0012255950560328159,-0.009821748503185276,0.006444935142370396
5.983333333333333,-0.34343659877777,0.15090352296829,10.07284832000732,-0.00027493744285132175,0.008660975932411991,0.019781411300133774
5.991666666666666,0.3481360077858,-0.02046428434551,9.97281551361084,0.0018277750497229634,0.003286955340788216,0.022893793570649752
6.0,0.13006713986397,-0.54976010322571,10.0707950592041,0.0037733484243775033,-0.005949377559709582,0.02065852964693514
6.008333333333334,0.39644637703896,-0.77224224805832,9.92279529571533,-0.0001144454954952273,-0.0045201500286778705,0.013032705184736895
6.016666666666667,0.11688452959061,-0.65283328294754,9.93484020233154,-0.002001455024762449,-0.018342126694946396,0.011935636779624826
6.025,-0.46324673295021,-0.56676983833313,9.94739437103271,-0.00010326918335370581,-0.0006956140356880867,0.016034663017663618
6.033333333333333,0.28386771678925,-0.51383876800537,9.68794631958008,0.0027223277389886217,0.0030173820609314802,0.010763017823338534
6.041666666666667,0.16425788402557,-0.56197023391724,9.89149475097656,-0.001265159122828738,-0.006492099101097285,-0.008395202338446435
6.05,0.04605715721846,-0.2921721637249,9.90006351470947,-0.0037610544509509057,-0.0011596547713235846,-0.008558824979255945
6.058333333333334,0.34093579649925,-0.08848667889833,9.72936153411865,0.0032234737987493385,-0.019795496925586794,-0.0229637577253185
6.066666666666666,-1.15125727653503,-0.46492049098015,10.27347850799561,-0.005766980153363556,0.006425712528845983,-0.013021304566617356
6.075,0.30238643288612,0.19911368191242,9.81583213806152,-0.008034431395713902,0.011510936446865518,0.011284729000290494
6.083333333333333,-0.20725387334824,0.23797513544559,10.00734901428223,0.003494834569443277,-0.00027493744285132175,0.014017561921496988
6.091666666666667,0.30406734347343,-0.27712973952293,9.83249092102051,0.00615122124349958,0.006992127881557082,0.00734529997265569
6.1,0.23788188397884,-0.8348582983017,9.93811702728271,0.002723668942283752,-0.001948255911281952,0.009753126332034394
6.108333333333333,-0.67416262626648,-0.73451113700867,10.17886734008789,-0.0076298493724549785,0.010604761556155197,0.009780397725775242
6.116666666666666,1.21750700473785,0.18971517682076,9.73726558685303,0.00037619487815360815,-0.005887237481040139,0.011364303421424233
6.125,-0.89298951625824,-0.78933054208755,10.34811115264893,0.0031286980333076597,0.007699365158987223,0.0007316018204380821
6.133333333333334,0.29660692811012,-0.55758553743362,9.76252174377441,0.007254548077173532,-0.012685122090886977,-0.0034816464604865353
6.141666666666667,0.17856356501579,-0.40033030509949,9.7819709777832,-0.00016675066850130757,-0.0013997222288746132,-0.0015807784319255096
6.15,-0.69878268241882,-0.42724645137787,10.04302024841309,-0.0020801362206262853,0.006493664228386452,-0.015749667330322258
6.158333333333333,0.69637930393219,-0.06190785393119,9.90847587585449,-0.00032232500047919306,0.0030598524583115238,-0.020164313527643758
6.166666666666667,-0.59385049343109,-0.07468283176422,10.50784778594971,-0.0039756396960812694,-0.00034512470878182163,-0.013149609634212982
6.175,0.41012981534004,0.56801426410675,10.0237865447998,-0.0020823718195256903,0.00048661691005554643,-0.008273157259858343
6.183333333333334,-0.17088857293129,0.09004714339972,10.16567039489746,0.002948536225861039,0.010023143818838592,0.0048158758625283585
6.191666666666666,0.4068395793438,-0.16027408838272,9.81568050384521,0.011049578117820282,-0.015059864915505199,0.009538987374446103
6.2,0.1902012526989,-0.40361347794533,9.53839492797852,0.004821686963250777,-0.019976550267820168,0.012519040707406762
6.208333333333333,-0.58090382814407,-0.78802156448364,9.68386936187744,0.006411406880513842,-0.01834972502643154,-0.0012454889213905558
6.216666666666667,-1.11050021648407,-1.23731303215027,9.99362182617188,-0.0028553255877081783,0.021106475422881164,0.0004481703501258219
6.225,1.05698990821838,-0.38076013326645,9.82889270782471,-0.008714400400295199,0.012241422808522813,0.003261473518479182
6.233333333333333,0.00565072195604,-0.15709771215916,10.23679733276367,-0.0008082713413965496,0.006000564868247384,0.0016248130463344804
6.241666666666666,1.2562609910965,-0.07366713136435,9.74895286560059,0.01299157599065198,-0.0063199845134212715,-0.005110259712860804
6.25,-1.06424999237061,-1.38139283657074,10.28525161743164,0.008707916227219148,-0.012847848515571907,-0.0072011251697361505
6.258333333333334,0.57365041971207,-0.35556069016457,9.51516151428223,-0.005823755939001261,-0.0008064831353550104,0.003945464312425389
6.266666666666667,-1.11756706237793,-0.33290043473244,10.14102172851562,-0.002486507425205389,-0.00016675066850130757,-0.011437844118213218
6.275,0.5537731051445,0.26920440793037,9.71911811828613,0.004031297422195142,0.008674834252904667,-0.0013755810897119257
6.283333333333333,-0.37847831845284,-0.49399670958519,10.06771087646484,0.006200844985194391,0.0014231923762782796,0.0006207326557527571
6.291666666666667,0.36726281046867,-0.08900970965624,9.74038410186768,0.0022913687175933014,0.004205648388993649,0.013606719389081746
6.3,-0.44379842281342,-0.35030362010002,9.92061519622803,0.002699080995430383,0.0037755840232770823,0.002452308171589814
6.308333333333334,0.76019018888474,0.04682217910886,9.69052124023438,0.002806820425686333,-0.0022634278925394344,0.007841081219236235
6.316666666666666,-0.37108233571053,-0.32153460383415,9.91576480865479,0.0010235271231559017,-0.0092352153611224,0.009155863563610998
6.325,0.08939623087645,0.04614299163222,9.76299381256104,0.0008308474182886471,0.0030397346689597475,0.02192637117635396
6.333333333333333,0.38828986883163,-0.02821560762823,9.82082748413086,0.016335978889060014,-0.03224859838858154,0.02264746781457417
6.341666666666667,-0.7700822353363,-0.92903983592987,10.04696941375732,0.005559324328553923,0.011868580255911719,0.022776668578145944
6.35,-0.74355947971344,-1.0926468372345,10.05750560760498,-0.0026081056961026233,0.01149305477656193,0.004001345962533123
6.358333333333333,1.32733166217804,0.01677341759205,9.57717037200928,-0.0018159282740983292,0.0019252324415319892,0.012106410944228799
6.366666666666666,-0.29361701011658,-0.81942218542099,10.13103771209717,0.00294898303355172,0.011362515150364117,-0.006396430240422679
6.375,0.3615118265152,-0.63464313745499,9.91902637481689,0.006629567627467218,-0.008715739783069849,-0.0017658582448616216
6.383333333333334,-0.09328737854958,-0.55041128396988,9.84506607055664,0.007139208234837832,-0.012342678065702885,-0.0014806385034892458
6.391666666666667,-0.34116181731224,-0.69421893358231,9.89477062225342,0.005088577316368644,0.00694429345121978,-0.020554144135177078
6.4,0.79500252008438,-0.5744594335556,9.68996334075928,0.00250774223378378,0.008618952602796931,-0.01860007465246664
6.408333333333333,-0.36805668473244,-0.38499462604523,10.27894306182861,0.0002876784515337032,-0.017464563100900353,-0.02224355574277705
6.416666666666667,0.25572124123573,0.1664461940527,9.7401819229126,0.00010125744342976113,0.008775868967056837,-0.0059779888563738625
6.425,-0.64274019002914,-0.39890688657761,10.06993007659912,0.0114107963883921,-0.005119200548012772,-0.004380669047179481
6.433333333333334,0.35199856758118,-0.22306141257286,9.75223636627197,0.001475497484265784,0.00693401115269855,0.0018027400351046095
6.441666666666666,-0.59246283769608,-0.18646031618118,10.07031631469727,0.004398775421700193,-0.006197044779154427,0.0044090577202214225
6.45,0.52841627597809,0.1110764965415,9.63086700439453,0.006843259257216219,0.0010995261074853802,0.005202576215483694
6.458333333333333,-0.77887308597565,-0.64250409603119,10.0052318572998,0.00938967142226595,-0.0012848294543038978,-0.0017184706222149995
6.466666666666667,0.65255385637283,-0.13234190642834,9.66382694244385,0.0018715862602865067,-0.0034950582333630096,0.007949268497480257
6.475,-0.0287043582648,-0.19845563173294,9.81185531616211,0.007578661543768569,0.0007083550768798437,0.01264689740686588
6.483333333333333,0.74883830547333,-0.21605162322521,9.62395668029785,0.01564550444218654,-0.01698129819129444,0.01274100270069732
6.491666666666666,-0.9897392988205,-1.04985821247101,10.08759117126465,0.010060474887478327,-0.011965812683429491,0.01181515578802851
6.5,0.11629807204008,-0.3176434636116,9.50007724761963,0.0020763364046977786,-0.006071869966136962,0.014772633629264433
6.508333333333334,-0.44349771738052,-0.55100494623184,9.68803215026855,0.0017312119234810608,0.015562577142852299,0.009729432520711172
6.516666666666667,-0.09613406658173,-0.52922427654266,9.88353252410889,0.0054542662645908424,0.007782069834699123,0.003208274014887228
6.525,0.68153721094131,-0.34139087796211,9.60643291473389,0.004346916601254761,0.0056008998101807345,0.001471920942145553
6.533333333333333,-0.92814576625824,-0.53366643190384,9.97725009918213,0.0005992741832544594,0.003643703453858445,0.009181792973833803
6.541666666666667,0.63225412368774,-0.26859641075134,9.59886455535889,0.007678353754254086,0.009767878788057216,0.00485879228737617
6.55,0.10289377719164,-0.48609998822212,9.96196365356445,0.007274218538685843,0.004569996393994845,0.002111653587800209
6.558333333333334,0.35711282491684,-0.37174755334854,9.87289714813232,0.010872992852493891,-0.013907809515963973,0.0012604651713702608
6.566666666666666,-0.45813256502151,-0.56062597036362,9.86077499389648,0.003004417875968774,0.018090210381176294,0.009741053681858616
6.575,0.08919595181942,-0.45538574457169,10.01246356964111,0.009441976530253455,-0.006331607755163151,0.008351616482285601
6.583333333333333,0.65993583202362,-0.31781470775604,9.73067760467529,0.003597210226816273,0.004741664694128963,0.0086980807363886
6.591666666666667,-0.59769153594971,-0.61247646808624,9.96207237243652,0.006049293434114658,-0.006828729944964521,0.00024073789665206646
6.6,0.14754168689251,-0.22008582949638,9.63264751434326,0.006309032263438237,0.0025873176952149134,0.00022866748961725006
6.608333333333333,-0.49965468049049,-0.55542540550232,9.84811973571777,0.007427111553134837,0.0022252052891129468,0.00043207649575214234
6.616666666666666,0.71145039796829,-0.25566408038139,9.59661197662354,0.007425993753685134,-0.0036090571324778843,-0.002848173283690805
6.625,-0.07647819817066,-0.42487171292305,9.78525352478027,0.008311604047353172,-0.0027444564230228534,-0.001032691817283156
6.633333333333334,0.5972695350647,-0.16884285211563,9.56496715545654,0.015965372975645716,-0.02316359051442622,0.002206428703056301
6.641666666666667,-0.97659909725189,-0.87718176841736,9.94389629364014,0.01020867252006017,0.0025788236677538002,0.0035091404778497216
6.65,-0.01862600259483,-0.38345676660538,9.71422576904297,0.007033704403481287,6.594028064558138e-05,-0.0018785155505700844
6.658333333333333,0.21449230611324,-0.33759272098541,9.56142711639404,0.005216435056124979,0.008810292404740752,0.0014415217645327879
6.666666666666667,-0.32580474019051,-0.53509676456451,9.96993255615234,0.0045641852932726025,0.009922111185281034,-0.005442419358929055
6.675,0.57839339971542,-0.24097229540348,9.61343669891357,0.010762570495499247,-0.007195760356555979,-0.004512102808907438
6.683333333333334,-0.48233050107956,-0.54500371217728,9.80251312255859,0.005175305862040064,0.011709876660889091,0.0036821497212046646
6.691666666666666,0.19827680289745,-0.28172186017036,9.75032615661621,0.008654717503850282,-0.0030453231460596517,-0.0020005610192694563
6.7,0.45992088317871,-0.06178627163172,9.80226230621338,0.011033483678279415,-0.0009432812551331062,0.004711265126404742
6.708333333333333,-0.75333029031754,-0.65891271829605,10.04407215118408,0.015153970209336638,-0.01742253821083947,0.00011601018390878715
6.716666666666667,0.59227687120438,-0.16284877061844,9.36171245574951,0.005201234752114259,0.007774471503213982,0.004462256443590287
6.725,-0.72605627775192,-0.58837860822678,10.01062679290771,0.0072916528811501425,0.00021614998230807308,-0.0015378613568919365
6.733333333333333,0.43653801083565,0.15350715816021,9.47630786895752,0.010621748570780206,-0.0011484784673095377,-0.0004922050295531945
6.741666666666666,-0.63687497377396,-0.462910592556,9.80088329315186,0.006969328205763829,0.007620237025395555,0.0014839913816897445
6.75,0.05347465351224,-0.23560033738613,9.70941162109375,0.007949267457182866,0.0015917312020571506,0.0016990239546595715
6.758333333333334,0.03301037102938,-0.21272554993629,9.72341728210449,0.006166422067659083,0.010564080730206966,0.008217052465979662
6.766666666666667,0.34779268503189,-0.06743700057268,9.83067417144775,0.0124023609621478,-0.0036390091122885117,0.008904619281897315
6.775,0.33021813631058,-0.37832817435265,9.55933094024658,0.014843715063234278,-0.008926302198538082,0.011765757270699432
6.783333333333333,-0.25206333398819,-0.60765641927719,9.73497200012207,0.019787671809290093,-0.027097206360743826,0.01349898099912319
6.791666666666667,-0.14954462647438,-0.7626793384552,9.60069561004639,0.00523476405426803,0.010874781123554007,0.013190066796241654
6.8,-0.27949771285057,-0.80769950151443,9.70550727844238,0.00790322233820307,0.008816550833302461,0.01081577025916533
6.808333333333334,0.21428486704826,-0.6571102142334,9.69439792633057,0.007553626269075909,0.007012245670908859,0.004266000456677281
6.816666666666666,0.60333514213562,-0.49815258383751,9.59191226959229,0.00951976476092169,0.007586708243390392,0.0021053948991641962
6.825,-0.43620181083679,-0.95875990390778,9.93518447875977,0.012209232889143867,-0.009196769093776355,-0.0011846896559047863
6.833333333333333,0.32966023683548,-0.47931915521622,9.43505001068115,0.007004198971287036,0.01262231206075573,0.0028524202974214486
6.841666666666667,0.10950287431479,-0.50577753782272,9.8840913772583,0.010002133974551457,-0.004003357637438492,-0.002958148052771855
6.85,0.52400273084641,-0.15272742509842,9.60787200927734,0.015298367635878517,-0.005780838473856408,0.006561615927926747
6.858333333333333,-1.0700581073761,-0.86895596981049,9.97933197021484,0.01258654767985116,0.0018742687969137447,-0.00956335425812296
6.866666666666666,0.90889030694962,-0.06063465029001,9.43625259399414,0.013600014672978143,-0.001553061140754222,-0.012767378398462193
6.875,-0.5117501616478,-0.59881454706192,9.76777935028076,0.011717922320213521,-0.001897738814280259,-0.010639407617461455
6.883333333333334,0.1363617926836,-0.32049027085304,9.58097553253174,0.013396604301452977,-0.00589126083085105,-0.0120310819763797
6.891666666666667,-0.62907111644745,-0.52742886543274,9.74949073791504,0.005913836842724572,0.01897403448437883,-0.006563181055215914
6.9,0.09466787427664,-0.19459308683872,9.79114723205566,0.009589058964128813,-0.00024364375585155575,-0.011865227377711219
6.908333333333333,0.43859088420868,-0.19877035915852,9.69455528259277,0.008123171356216386,0.014845502293997,-0.001315676219830431
6.916666666666667,0.12645509839058,-0.19283348321915,9.78920269012451,0.01686036987185884,-0.015571293793935927,0.000756636705019284
6.925,0.02393341250718,-0.34031081199646,9.55683517456055,0.014697975653174357,-0.0006281090788198958,0.006501710407859492
6.933333333333334,-0.0361504778266,-0.17663821578026,9.67959785461426,0.021213769605892257,-0.02771995329214534,-0.0030386173896586543
6.941666666666666,0.33470296859741,-0.42661702632904,9.52578449249268,0.013289983190795515,0.0018972917465152736,-0.0021563586738195927
6.95,-1.19227182865143,-0.54361712932587,9.70972442626953,0.017040535840494676,-0.025094413513652554,-0.006794754875417287
6.958333333333333,0.51346677541733,-0.22623737156391,9.12007427215576,0.0063166321553693805,0.01442169973780845,-0.0036001160372517863
6.966666666666667,-0.71437591314316,-0.57220596075058,9.80927276611328,0.01137480938386502,0.017803427463072213,0.0012758884891149516
6.975,1.22573983669281,0.0041057318449,9.38895034790039,0.011438514069674848,-0.0013778164285370262,0.005492266244394814
6.983333333333333,-1.24272060394287,-0.70882529020309,9.94687175750732,0.00917151171560979,0.013025106853251754,0.002055325130001793
6.991666666666666,1.41365206241608,0.25426211953163,9.263596534729,0.01276358027301684,-0.008615600764893825,0.003677232495937912
7.0,-0.7959468960762,-0.48392558097839,9.79191970825195,0.020657187663417096,-0.012684673722750294,0.003991956759244648
7.008333333333334,-0.39868515729904,-0.31513994932175,9.57879447937012,0.014224101507302918,-0.004397658142399099,0.002279298408086262
7.016666666666667,-0.10945995897055,-0.46341839432716,9.51162910461426,0.00899045317188998,0.022438692629868834,0.008143289145568163
7.025,-0.36586767435074,-0.27368184924126,9.93998432159424,0.00973926749139311,0.011206940769622255,0.01942645145812366
7.033333333333333,0.51906967163086,-0.4118900001049,9.86264038085938,0.007423086642878099,0.026822492971923864,0.021142242924677555
7.041666666666667,-0.15551739931107,-0.50825244188309,10.03036022186279,0.013065564015280428,-0.000775189432100644,0.018901388443268424
7.05,0.51835912466049,-0.50964027643204,9.62089729309082,0.01267014493064703,0.008251922191205473,0.004480586482030732
7.058333333333334,-0.48396149277687,-0.57186263799667,9.88769626617432,0.014938042980688057,-0.00694764580927167,-0.003964910329795055
7.066666666666666,0.89406961202621,-0.43733912706375,9.47570037841797,0.014989007145454909,0.004937473613277159,-0.003446329407421257
7.075,-0.35937094688416,-0.48384416103363,9.75598430633545,0.025058868635478498,-0.026548224830348414,-0.005216211392205421
7.083333333333333,0.44351202249527,-0.50958997011185,9.31011199951172,0.018002588220123513,-0.00429707075608622,0.003617326975870656
7.091666666666667,0.29554736614227,-0.27713525295258,9.5750093460083,0.023881782642582443,-0.037332034035540966,-0.007580226150908952
7.1,-0.39372849464417,-0.58488082885742,9.51135540008545,0.01285455531227012,0.0018914802556813987,-0.004990673376943242
7.108333333333333,-0.52096843719482,-0.30981275439262,9.40439605712891,0.018998847655597756,-0.014816444709790821,-0.02276861875763211
7.116666666666666,0.1618690341711,-0.34897997975349,9.22676849365234,0.012135022240893077,0.008301544892602892,-0.0033689892848153984
7.125,-0.64709603786469,-0.4682035446167,9.53035640716553,0.015248968078252222,0.008092994932263113,-0.006148316213287154
7.133333333333334,0.61745470762253,-0.07411066442728,9.2727222442627,0.010919039531919687,0.01626891820415786,-0.00240514369271414
7.141666666666667,-0.75446754693985,-0.38850665092468,9.85944271087646,0.01546869655323781,0.0019261267070991117,-0.012752179654897302
7.15,1.10729587078094,0.0411145426333,9.2551851272583,0.007613978596833847,0.01610038067875051,-0.008576259321720243
7.158333333333333,-0.14884775876999,-0.092299669981,9.67117500305176,0.021901335381512694,-0.01987060014892155,-0.008330380893484122
7.166666666666667,-0.09421724826097,0.04387553781271,9.52627086639404,0.01638917657213166,-0.006598051300590511,0.004555243417823416
7.175,-0.45837563276291,-0.23215267062187,9.57194137573242,0.02096118334066053,-0.010859803963314235,0.0033124371630972515
7.183333333333334,-0.77559232711792,-0.40477767586708,9.64632892608643,0.00727913654417551,0.029243735005293786,0.014994820326771937
7.191666666666666,0.52956074476242,-0.20842668414116,9.73162841796875,0.01332284202133887,0.008696292465328485,0.01613524936367911
7.2,0.59068179130554,-0.42518645524979,9.90508556365967,0.0067641316437731585,0.010325352265319306,0.017863556647059197
7.208333333333333,-0.14443029463291,-0.49927553534508,9.75918960571289,0.01669205601037122,-0.015426000671417903,0.0039058997254808577
7.216666666666667,-0.55242121219635,-0.46642974019051,9.65351295471191,0.010001239318872703,0.0092492968253862,0.016044944275887457
7.225,0.60225504636765,-0.5001625418663,9.5692663192749,0.02232603467397461,-0.004618501816091171,0.0161531341548747
7.233333333333333,-0.24732385575771,-0.91684424877167,9.7402982711792,0.018927764141033303,3.3976004189375146e-05,0.01784187269012104
7.241666666666666,0.64464998245239,-0.49501249194145,9.20260429382324,0.01819527000558538,-0.01470356308997704,0.0011723958125153414
7.25,-0.73035532236099,-0.71483367681503,9.6686840057373,0.016573362249537805,-0.009360836461681937,-0.0072319715451512265
7.258333333333334,0.78939491510391,-0.12367980927229,9.26017093658447,0.018312397078683804,0.0009224933192637975,0.0011384197026707147
7.266666666666667,0.58850902318954,0.00447112880647,9.38414573669434,0.024225565530392748,-0.03116449208783757,-0.0034820935282516945
7.275,-1.32847607135773,-0.51318073272705,9.58156967163086,0.019976329724792262,-0.005081201608506018,-0.010105627951522762
7.283333333333333,0.13222029805183,-0.09625580906868,9.18163967132568,0.01783829822859542,-0.004335964091197424,-0.005336021392042541
7.291666666666667,-0.36680492758751,-0.14655460417271,9.52529811859131,0.010880593264573643,0.014864280700574125,0.0004919815281799899
7.3,0.11888740211725,0.28935396671295,9.32518291473389,0.01247366606003738,0.0009271874657780028,-0.010925522664698345
7.308333333333334,-0.67396247386932,0.06556282192469,9.59491634368896,0.013198784487622498,0.012573806118510795,-0.004303553108641964
7.316666666666666,0.37682607769966,0.29979711771011,9.5013427734375,0.01370507325708983,0.011543573694083929,0.013317031960913845
7.325,-0.08765809237957,-0.23839710652828,9.74425315856934,0.017194765116826494,0.0015564140189547203,0.013805211234968638
7.333333333333333,-0.07850960642099,-0.38241243362427,9.46630096435547,0.01222510262446778,0.014881044051279404,0.011790567321026534
7.341666666666667,0.4151223897934,-0.517687022686,9.62934303283691,0.01770887692199609,0.0006216267912827276,0.011449244736332756
7.35,0.31561884284019,-0.55532521009445,9.81481075286865,0.01615760327207907,-0.004665442110898504,0.00944778867127309
7.358333333333333,0.65368413925171,-0.69507044553757,9.30252170562744,0.02066657946744879,-0.015611082044800014,0.003688408409840677
7.366666666666666,-1.14042782783508,-0.88660204410553,9.85977935791016,0.021565152905782137,-0.01843824184316307,0.002402237882278801
7.375,0.10032577812672,-0.55172026157379,9.37252044677734,0.016095015865570165,0.011949049332724214,-0.004504056109285615
7.383333333333334,0.77457016706467,-0.22761109471321,9.43622303009033,0.020878927033085307,-0.009294226225510903,-0.02469250921564606
7.391666666666667,-0.04033461585641,-0.29216524958611,9.62068271636963,0.019094740180192096,-0.012714625962635225,-0.013023539125219544
7.4,-0.70765936374664,0.08430340886116,9.34741401672363,0.01844338299242369,-0.013077633544564381,-0.011096295789005098
7.408333333333333,0.46378293633461,0.34462395310402,9.23143863677979,0.018081270066173112,-0.0006450970687235459,-0.014399567412733608
7.416666666666667,-0.77872288227081,0.10209252685308,9.58543872833252,0.019690214677555374,0.009413364193291956,0.009358825566999482
7.425,0.25314643979073,0.00973511207849,9.3553524017334,0.016620302544344958,0.008663211011162786,0.004632583800503754
7.433333333333334,-0.15480898320675,-0.30488991737366,9.60951519012451,0.016580070086533408,-0.002934007173683471,-0.0021525591179655658
7.441666666666666,-0.00126605317928,-0.50518381595612,9.44726753234863,0.014766821488244796,0.013593308916576969,0.006730602341619388
7.45,0.58571767807007,-0.41482907533646,9.32880115509033,0.018067413306126434,0.0035042227324345353,4.850521891329604e-05
7.458333333333333,0.40284097194672,-0.50454723834991,9.59222030639648,0.021000302680360208,-0.01037430553540353,-0.01347327629311751
7.466666666666667,-0.83308446407318,-0.60437232255936,9.59537410736084,0.022833217058823477,-0.007431580670339212,-0.006445829798049149
7.475,0.2742757499218,-0.18256916105747,9.20294761657715,0.019979904186317884,0.006602745122011661,-0.006523840652339725
7.483333333333333,0.73354989290237,0.05671122670174,9.45217227935791,0.023832158380739196,-0.022933356076999676,0.00391729930330318
7.491666666666666,-0.74359303712845,-0.06778512895107,9.77687740325928,0.020779233262153793,-0.011382856083486844,0.020636623066374635
7.5,-0.00487108621746,0.13063237071037,9.27840328216553,0.012591464124894827,0.009972181734666526,0.02031698131772702
7.508333333333334,-0.46505287289619,0.08139967173338,9.86410808563232,0.018186331771176803,-0.0015034384393568035,0.024054792406085993
7.516666666666667,0.18081670999527,-0.19854861497879,9.56202793121338,0.018095798858276377,0.0009446223934094856,0.015986604403257977
7.525,0.04950482770801,-0.36707675457001,9.36334991455078,0.018671382871248046,-0.002762338873549529,0.01017335650729211
7.533333333333333,-0.12542510032654,-0.45882627367973,9.64902782440186,0.01739772816051237,0.0022037462964662148,0.0036231385967416836
7.541666666666667,-0.20717494189739,-0.65426337718964,9.7722282409668,0.020748833694429397,-0.007557874323103772,-0.014648576095547887
7.55,0.29534804821014,-0.60346388816833,9.21392726898193,0.01944791279143931,-0.008262428673795045,-0.010163743119935294
7.558333333333334,0.27816691994667,-0.21826185286045,9.34844398498535,0.01749183345434381,-0.003227720552405678,-0.014769280751063932
7.566666666666666,-0.05662009492517,0.01781891845167,9.6344747543335,0.02294766640666964,-0.015102112429188424,-0.020804271137589668
7.575,-0.33686313033104,0.04343921691179,9.29565620422363,0.02194715839701876,-0.0024581192723120574,-0.006128868895545791
7.583333333333333,0.4008381664753,0.19202522933483,9.1675271987915,0.017345868299769546,0.008988218613287795,0.00829752154279198
7.591666666666667,-0.03450708836317,0.17826004326344,9.45655345916748,0.02266356121381782,-0.014736645584440131,0.011989283871130373
7.6,0.28523415327072,0.04723014682531,9.09255790710449,0.019376384029630173,-0.006475558374014349,-0.01195106022740667
7.608333333333333,-1.18446791172028,-0.27442598342896,9.49710845947266,0.015415940996519013,0.0039888280651123155,0.004240071566603086
7.616666666666666,0.63997220993042,-0.06207933276892,9.39478015899658,0.014740893118319385,0.015661374177510453,0.010232812618925467
