Time (s),Acceleration x (m/s^2),Acceleration y (m/s^2),Acceleration z (m/s^2),Gyroscope x (rad/s),Gyroscope y (rad/s),Gyroscope z (rad/s)
0.0,0.02758153527975,0.01089377701283,9.73425483703613,0.009555528101529041,-0.000257949404183696,-0.0020318545924866704
0.008333333333333333,0.00014305685181,0.03365412726998,9.75439643859863,0.006351054032607296,-0.0005445102025592747,-0.0025468592328147166
0.016666666666666666,0.02948390133679,0.02501355856657,9.74707126617432,0.00752412083688166,-0.0041204849706112205,-0.0017734582668299161
0.025,0.04079981520772,0.0091413334012,9.74340915679932,0.005607158758891051,-0.00017211530288052597,-0.002174911595956507
0.03333333333333333,0.02250300161541,0.00592972710729,9.72876930236816,0.006780225563165414,0.0008581177067135254,-0.001317017423125561
0.041666666666666664,0.04806710407138,0.00833306182176,9.77087688446045,0.007695341809176312,0.0010288918062989214,-0.0028334203075193747
0.05,0.01135871466249,0.01443443726748,9.74707221984863,0.007667178360500104,-0.0009727868173645091,-0.0007157314999469824
0.058333333333333334,-0.00319732073694,0.02973436750472,9.78552532196045,0.00655133466970291,-0.0026608578718552876,-0.0007434486610811181
0.06666666666666667,0.00250349496491,0.02110803872347,9.77086925506592,0.008268464478734411,-0.0006857789999877463,0.0010865617274667717
0.075,-0.00292551284656,0.02175179496408,9.75256538391113,0.0066948379607148206,-0.0024024615461983585,0.0016592362239439178
0.08333333333333333,0.01191642787308,0.01133014727384,9.76721286773682,0.0066943911530241386,-0.001459627098756108,-0.0017452939078934687
0.09166666666666666,0.00653769867495,0.01919823139906,9.75988292694092,0.006293831439278735,-0.0020032431657854123,-0.0010867851313121994
0.1,-0.00062254501972,0.01418414246291,9.74891567230225,0.0066371680395469704,-0.0015172967598494794,-0.002088630118050246
0.10833333333333334,0.01048606820405,0.03126507624984,9.78550434112549,0.007094950866769367,-0.0029755834355335454,-0.0004287236175516436
0.11666666666666667,0.00707418983802,-0.00116591656115,9.74160099029541,0.008382461817403286,-0.0009151169612152348,-0.0003723949646974994
0.125,0.01080079283565,0.01782488450408,9.7434024810791,0.007953290806993776,-0.0010013981140287896,-0.001087679331860746
0.13333333333333333,0.01638001017272,0.01484214887023,9.77087688446045,0.009698584584850095,-0.002089524383617369,-0.0024029083538890396
0.14166666666666666,0.00190232251771,0.02293202839792,9.75438785552979,0.007094503538930079,-0.0003732890352088937,-0.0026331407107209773
0.15,0.01291803456843,0.01252462808043,9.75440311431885,0.006579945446218409,0.0008576706389485403,-0.0013746870842191073
0.15833333333333333,0.01650887541473,0.03135092556477,9.73972702026367,0.006980504639815029,0.0006578380448967267,-0.0009169050372196219
0.16666666666666666,0.01828993670642,0.0136262010783,9.75074291229248,0.005235211382107321,0.001516179480548386,-0.000631238488156391
0.175,0.02183050848544,0.02326819859445,9.79101276397705,0.0067516147866499175,-0.0003433365352496576,-0.00025839650445788197
0.18333333333333332,0.02368335425854,0.01461327075958,9.75805950164795,0.007381064873709041,0.00028454910721560975,-0.002204417288225237
0.19166666666666668,0.02366160415113,0.02981304936111,9.73422527313232,0.008467849419854056,-0.0003169603823547496,-0.0035200932479813635
0.2,0.00172383512836,0.01039308123291,9.74890327453613,0.00789651554150468,-0.002546412425124036,-0.0010572796340993723
0.20833333333333334,0.00192402128596,0.01285365410149,9.7452392578125,0.008124959627276503,0.0002572788513001066,-0.0012893000019169468
0.21666666666666667,-0.00907726865262,0.02823228575289,9.79100322723389,0.007123561643285039,-0.0004309588263395921,-0.002432861113922754
0.225,0.01476346794516,-0.00605130521581,9.74162101745605,0.007152172939949145,-0.002147194304785219,-0.002173570262624399
0.23333333333333334,0.01492071337998,0.02934811450541,9.75802898406982,0.0074096751300759284,-0.00025705530116292626,-0.0008878466727903563
0.24166666666666667,0.00761062512174,0.02624378167093,9.73789501190186,0.008239852141772913,-0.0019156208746953032,-0.00019983256154261286
0.25,0.02243124693632,0.03246677666903,9.76717758178711,0.008182629028295745,-0.003261249594485145,-0.0009419400518379758
0.25833333333333336,0.002553564962,0.01847579330206,9.76354503631592,0.0068946707498223625,-0.00022710278494891524,0.0006278855449373161
0.26666666666666666,0.00256787054241,0.03366127982736,9.75069808959961,0.0071807852769108175,-0.0006303444176449965,-0.0016312955289272024
0.275,0.00629415223375,0.0049140593037,9.73611259460449,0.006351054032607296,-0.001032691817283156,-0.003090028362116188
0.2833333333333333,0.02834685146809,0.00914132222533,9.75257396697998,0.007238007350090596,-0.000658061578779132,-0.0010304565434766314
0.2916666666666667,0.02655135467649,0.03351107239723,9.74886131286621,0.008010068153077483,0.0019753023407315445,-3.308190523225557e-05
0.3,0.01908378489316,0.01960594207048,9.7836799621582,0.007352899344438223,-0.0022325812570500527,-0.0016295072578672615
0.30833333333333335,-0.00086549401749,0.01837565377355,9.78918743133545,0.009269861422428657,-0.002345238692795668,-0.0006567204405027525
0.31666666666666665,0.01947003789246,0.01181649696082,9.7837085723877,0.006493663708237843,-0.0007756364348470532,-0.002947418166337032
0.325,0.0012088305084,0.03605747967958,9.75801563262939,0.006665778816062466,-0.0012593475019577107,-0.0010872321340586087
0.3333333333333333,0.00130903092213,0.02376889623702,9.75256633758545,0.0078679042448404,-0.00054272199651791,-0.00043006472331882234
0.3416666666666667,0.01783200353384,0.01532854884863,9.7745475769043,0.007466898763701707,-0.0009709986113229698,0.00025683181604432213
0.35,0.01424131076783,0.04889683425426,9.77626991271973,0.006609228254790319,-0.002206205559285352,-0.002945630935574134
0.35833333333333334,0.02725233137608,0.01459180004895,9.75440311431885,0.007581790758049335,-0.001717129548957196,-0.0014010631720952648
0.36666666666666664,0.01273891236633,0.02624383382499,9.77267742156982,0.0074096751300759284,-0.0014037454486483729,-0.002259851350419203
0.375,0.0201710164547,0.03595734015107,9.75983238220215,0.008411520441906857,-0.0017725640012626193,-0.0005999447198834485
0.38333333333333336,0.03678704798222,0.01827551238239,9.736083984375,0.006351054032607296,-0.0006571674432491615,-0.00020117373232836775
0.39166666666666666,0.01673765294254,0.01529277861118,9.7928638458252,0.007152173460097929,-0.0014323570053869578,-0.0020023494203667237
0.4,0.03695852309465,0.01939139328897,9.74523258209229,0.009669974328483205,-0.0017470821789535844,-0.00251735406069477
0.4083333333333333,-0.00133758166339,0.01466332841665,9.74343109130859,0.008583189262189582,-0.0024614726706613395,-0.002001008087034616
0.4166666666666667,0.02997747994959,0.01903371699154,9.743408203125,0.007609955247022935,-0.00025660824965254144,-0.000631238488156391
0.425,0.00803970079869,0.03804598003626,9.77081108093262,0.008869302228832036,-0.0012298419397263076,-0.0012016777108270124
0.43333333333333335,0.02278900332749,0.01493513211608,9.7599048614502,0.008754857042175091,-0.0010000568457150833,-0.0006017329259249878
0.44166666666666665,0.01372657902539,0.0083402171731,9.76543426513672,0.007037280425452909,2.615258853486518e-05,-0.0021766999970537744
0.45,0.03018515370786,0.03819617629051,9.75982666015625,0.007609955247022935,-0.00048639340868216727,-0.0011453491229914442
0.4583333333333333,0.00276110670529,0.0204571262002,9.75073528289795,0.008067736513799332,-0.0006012858581600026,-0.0015177439576517916
0.4666666666666667,0.01929100416601,0.01374774705619,9.73794364929199,0.0077525649226534805,0.0005429455304003152,-0.001548590593140998
0.475,0.02291754074395,0.0384465418756,9.80376434326172,0.008582295126659612,-0.0007170726382235367,-0.002175805861523804
0.48333333333333334,0.03760964795947,0.03161556646228,9.75068378448486,0.006637615887535042,-0.0016581186845685196,-0.0002561612306513574
0.49166666666666664,-0.00067952007521,0.010214259848,9.76360893249512,0.004663430175918656,-0.0016616949666144463,-0.0016867297211584956
0.5,0.01776050962508,0.01984198577702,9.7837085723877,0.006579498118379119,-0.0010630914500261279,-0.0032903079589144107
0.5083333333333333,0.01964172534645,0.02388334088027,9.7470588684082,0.0079832440871761,-0.002658622793104491,-0.0002543730083552177
0.5166666666666667,0.01619403623044,0.04110023379326,9.76713562011719,0.008239852141772913,-0.0012870649231663252,-0.0011444549874614737
0.525,0.01266780961305,0.003290272085,9.76180744171143,0.008125406955115965,-0.0023756382605198893,-0.0017144471423669355
0.5333333333333333,0.01652320846915,0.02973435632885,9.79465389251709,0.009011912424611192,-0.0009450694611746454,-0.0017461879133864615
0.5416666666666666,0.01660890132189,0.00103000935633,9.76182079315186,0.006893330326750318,0.0019717263187599226,-0.002123947691264133
0.55,0.00361915887333,0.01255326811224,9.75810718536377,0.00826801767104373,-0.001432804073151943,-0.0024315201707019287
0.5583333333333333,0.01654455251992,0.03708748519421,9.77081775665283,0.008697186600858631,-8.181065396430687e-05,0.00034043065979556797
0.5666666666666667,0.00559352338314,0.0029541242402,9.75998973846436,0.008839798357083612,-0.001118525967350127,-0.002689469428593872
0.575,0.00932015478611,0.007267288398,9.74532604217529,0.008353403713048324,0.0008022361216243666,-0.0008060360675900251
0.5833333333333334,0.00558663671836,0.02989177964628,9.73972034454346,0.006292490496058085,0.0010552678941752533,-0.002379661610330801
0.5916666666666667,0.00551483780146,0.02685892209411,9.76536750793457,0.008240300509909421,-0.0008266005996139061,-5.8116862959333614e-05
0.6,0.02205936796963,0.02760282158852,9.7763557434082,0.008324791896235436,-0.0013192525018763575,-0.0026604108040903024
0.6083333333333333,0.00020743244386,0.02087199501693,9.76359462738037,0.007407886859015813,0.0031184162549350407,-0.0012405711759753693
0.6166666666666667,0.009098299779,0.02142995223403,9.75259208679199,0.007724847241370563,-0.0025186950039154214,-0.0016840475746427142
0.625,0.02213089540601,0.00933445990086,9.76912403106689,0.008039125217135226,-0.0010304565434766314,-0.0015736256077595265
0.6333333333333333,0.01120886672288,0.02640102989972,9.75805950164795,0.006408723953775146,-0.00209399506126757,-0.003144121741163808
0.6416666666666667,0.00954189244658,0.0397197380662,9.7543249130249,0.006636273904016824,0.0018581743573728804,-0.001667059519720488
0.65,-0.00158805842511,0.03660111501813,9.75801467895508,0.008411073114067566,-0.0015454612488230793,-0.0016871770489977854
0.6583333333333333,0.02417660877109,0.0208147726953,9.75442504882812,0.009212192541558199,-0.0012320774085885604,-0.002145853101490089
0.6666666666666666,0.02426959574223,0.02148713730276,9.73977470397949,0.007038174560982879,-0.00028298440254727504,-1.7882108670256602e-06
0.675,0.00601550331339,0.00935593340546,9.76365375518799,0.008126747898336619,-0.0029416068055403096,0.0005201458220978612
0.6833333333333333,0.0208721999079,0.03567115962505,9.76534175872803,0.007495956347908059,-0.0026662221648868505,-0.003056946387801706
0.6916666666666667,0.02107942849398,0.03807458281517,9.75799465179443,0.009613645350536179,-0.0028329732397543894,-0.001798493151411118
0.7,0.01216698624194,0.00944175291806,9.73986148834229,0.009383860321543532,-0.0007993302461702769,-0.0009455165289396306
0.7083333333333334,0.0232038218528,0.03405468538404,9.74704360961914,0.00792557364585964,-0.0017712227979676635,-0.00034154826418954215
0.7166666666666667,-0.00412719044834,0.03095035068691,9.73608493804932,0.007694000865955486,0.0019390911521361218,-0.0035567515043417714
0.725,0.02504925616086,0.01713105849922,9.76544761657715,0.007322947624701899,0.000539816153573021,-0.0024936599892970675
0.7333333333333333,0.01217431016266,0.02494911663234,9.75076293945312,0.00769489500148563,-8.941053776814928e-05,-0.002492318786001937
0.7416666666666667,0.01034301053733,0.03296745195985,9.76353740692139,0.007781176219317763,-0.0009204815143212768,-0.003033252576478308
0.75,0.01957023702562,0.03356830403209,9.75437641143799,0.008010067112780265,0.001002962851206325,-0.0008359886325678373
0.7583333333333333,0.03049257025123,0.02332542091608,9.76724243164062,0.007811128459202694,-0.0018861154425010524,-0.0006267678755247657
0.7666666666666667,0.01968462392688,0.02780310064554,9.79836463928223,0.0070953981946086575,-0.0021199244714903732,-0.0021418300117536557
0.775,0.01067204214633,0.02076470293105,9.75446033477783,0.008696292465328485,0.0008295062800120929,-0.0014649917818991276
0.7833333333333333,0.01428418792784,0.00869785621762,9.76003360748291,0.00806728970610865,0.00046337016649713336,0.0005384750152966414
0.7916666666666666,0.01056488603354,0.02019246667624,9.73798847198486,0.008010067112780265,-0.0006884612115221039,-0.001918303281285564
0.8,0.01247445773333,0.01555032469332,9.7691593170166,0.007411016073296755,-0.0030909227577204626,-0.001538308294619944
0.8083333333333333,0.03837500140071,0.01073641702533,9.77466011047363,0.007266618646754875,-0.0012325243463163933,-0.001916067942460463
0.8166666666666667,0.01281789503992,0.03700165823102,9.78732776641846,0.0061212700439120405,0.0005407102240845899,-0.0018646569700029292
0.825,0.0036409155,0.02291052602232,9.79476070404053,0.006981398775345173,-0.0020305135192288668,-0.0009405989135614218
0.8333333333333334,0.01841857098043,0.03981987759471,9.77265739440918,0.007151278804419175,0.0002858902129827886,-0.0011489255350745227
0.8416666666666667,0.00195987895131,0.00366225559264,9.75826644897461,0.00861180107900247,-0.0004837110671106575,-0.0007747424293542349
0.85,0.03491302579641,0.03180154040456,9.74890327453613,0.007124456298963619,-0.002001455284836753,-0.0008833763202330354
0.8583333333333333,0.00944204442203,0.03621482476592,9.7781810760498,0.008010067112780265,-0.0005744627675372614,-0.0020331956657446484
0.8666666666666667,0.02414774149656,0.00359075493179,9.72896003723145,0.00752412083688166,-0.0008319651527197735,-0.0019174091457554187
0.875,0.01507112570107,0.03208049014211,9.78921031951904,0.007238453637632667,-0.0012857237198711949,-0.0006567204405027525
0.8833333333333333,0.03898299485445,0.00685957632959,9.76007556915283,0.007152172939949145,0.0005478630807599481,0.00010885733536090372
0.8916666666666667,-0.00133042875677,0.01484930235893,9.78018951416016,0.006722108314158274,0.0010329154161841372,-0.00017837402402573916
0.9,0.00408420944586,0.00439899833873,9.77659702301025,0.008868407573153284,-5.454043055800444e-05,-0.00080514193205988
0.9083333333333333,0.02420522086322,0.01043599750847,9.7490816116333,0.006064493738125551,-0.0010081038704297873,-0.00283207884414994
0.9166666666666666,0.0242767482996,0.02016386389732,9.75998973846436,0.008496908564506234,-0.001236995154003747,-0.0032894140834587447
0.925,0.02260316722095,-0.00477095739916,9.76202201843262,0.00806728970610865,-0.00046180546182897315,-0.002548647503874832
0.9333333333333333,0.00977793615311,0.03264557570219,9.78189182281494,0.007408780994545959,0.0003440070718784721,-0.0010917026816716579
0.9416666666666667,0.0316870957613,0.04042071476579,9.75802326202393,0.00866902263203364,-0.0005668628105875428,-5.901096191645319e-05
0.95,0.01898364536464,0.00273953890428,9.76930999755859,0.009040076393436009,-0.00025705530116292626,-0.0014336979486076092
0.9583333333333334,0.02626501582563,0.04367531463504,9.75616931915283,0.006781119178546776,-0.0018624216311778287,-0.0018271044480753984
0.9666666666666667,0.00451344391331,0.01329713501036,9.78572559356689,0.006093999170319802,-0.0004546526376628157,-0.0002302321292668342
0.975,0.02464870549738,0.01532854046673,9.7435827255249,0.006868294531908877,-0.0034007300558347503,-7.59989680747036e-05
0.9833333333333333,0.00660207401961,0.02501349151134,9.74352359771729,0.006152116419326942,-0.0015150615510615309,-0.0007412133872745934
0.9916666666666667,0.02868987992406,0.01990636065602,9.72523307800293,0.007666730512512032,-5.722274774761365e-05,-0.0012624769763129563
1.0,0.03608609363437,0.01185226067901,9.78390216827393,0.007782517162538413,-0.002292486517043004,-0.0021977110116754555
1.0083333333333333,0.02154436334968,0.02479175291955,9.72337436676025,0.006121716851602721,-0.0015248969118549264,-0.0031445690690030965
1.0166666666666666,0.01620834134519,0.02746691741049,9.76730728149414,0.007152173460097929,-0.0003665832788078961,8.382239388842609e-05
1.025,0.03273141011596,0.01525701396167,9.76739311218262,0.006866954108836835,-0.0016031310399537775,-0.0014564978844751667
1.0333333333333334,0.00536463223398,0.03017069213092,9.73617076873779,0.008125854803103865,-0.0014842151756466289,-0.0005704393527077736
1.0416666666666667,0.02384757809341,0.0091413334012,9.76745700836182,0.007325183223601306,-0.0019737379936654656,-0.0011972072932511153
1.05,0.01303974818438,0.00618718657643,9.78398132324219,0.008697634448846529,-0.001745294037930621,-0.0014851093111765995
1.0583333333333333,0.0058009554632,0.0174314789474,9.73079204559326,0.008097242466142367,-0.00194959698453993,-0.002284886104963253
1.0666666666666667,-0.00502844853327,0.03298175707459,9.76180648803711,0.007923339607406063,0.0009435048540340875,-0.0014386156940229702
1.075,0.00225314544514,0.02083623223007,9.76375198364258,0.0076966832725457466,-0.001170384007572646,-0.0007148373644170119
1.0833333333333333,0.0224670805037,0.01952010765672,9.7472505569458,0.005808333011368201,-0.0013138880788074677,-0.0005409338229855714
1.0916666666666666,0.01889781095088,0.03103618510067,9.75448894500732,0.00594870708809917,0.00025057304613513323,-0.002636717252841208
1.1,0.01891927048564,0.00956335105002,9.75651359558105,0.008267123535513586,0.0012635946457255067,-0.0002959489451122364
1.1083333333333334,0.00781123153865,0.02680176310241,9.76735877990723,0.006577710367467612,0.001165689926077017,-0.0027837973460476525
1.1166666666666667,0.01318268943578,0.0401059910655,9.76174926757812,0.00861090642332389,-0.0008029067232719316,-0.0019464676402218366
1.125,0.00046493479749,0.01325421780348,9.75467491149902,0.01041342279450877,-0.0002825373347822898,-0.00109170281170881
1.1333333333333333,0.01148746535182,0.00684527074918,9.76022624969482,0.005862425870267212,0.0011102554737715939,-0.0022401811489811954
1.1416666666666666,0.00951304845512,0.04021327570081,9.75259971618652,0.007838399332794758,0.00014149218501894982,-0.00166437724316738
1.15,0.01500666420907,0.04096433147788,9.76358795166016,0.007896962869343969,-0.000908411139795661,0.00017099764972257605
1.1583333333333334,0.01507828291506,0.0230392832309,9.73628616333008,0.008126747898336619,-0.002316627396131387,-0.0012530886832845462
1.1666666666666667,0.02078616246581,0.02024969831109,9.75827312469482,0.007264831415991978,0.0013427230393914802,-0.0016125193329820132
1.175,0.02798910811543,0.02073608711362,9.74546146392822,0.008125854803103865,-0.0006214033874374744,0.0004557703070753661
1.1833333333333333,0.02078623510897,0.00713852792978,9.78954696655273,0.006380113177259474,-0.0009705516085765608,-0.0006285562116034573
1.1916666666666667,0.01715251803398,0.02019962854683,9.76013278961182,0.007179890621232064,-0.00026510226085905416,-0.0028070438295315866
1.2,0.02085053734481,0.02278895676136,9.77842235565186,0.006752954689573352,-0.001918750219013397,-0.0014824267745493613
1.2083333333333333,0.01550736371428,0.02135123685002,9.76196384429932,0.006409171801763045,-0.0015722845345015482,-0.0008261535318487462
1.2166666666666666,0.01012823078781,0.03293175250292,9.77101802825928,0.007840187603854873,-0.0026389523315920043,-0.0027672566189647155
1.225,0.01951276138425,0.02256723865867,9.76744174957275,0.006321996448400944,-0.0007179667737535071,-0.001716682611229363
1.2333333333333334,0.02138699963689,0.01364762429148,9.73823070526123,0.007524121877178877,-0.0011484784673095377,-0.0021449590959972706
1.2416666666666667,0.02147283405066,0.03287446498871,9.76918792724609,0.0075259091079416,-0.0032952257043297713,-0.002334509066434975
1.25,0.03825340420008,0.0096062682569,9.75840950012207,0.006893329286452927,0.00013746872142566087,-0.0022652161635995493
1.2583333333333333,0.01808238774538,0.00252495356835,9.73104190826416,0.007267512262136238,-0.000568204013882673,-0.00040190039689175027
1.2666666666666666,0.01261768024415,0.02718793787062,9.75827407836914,0.009157650794373898,-0.003229061755700808,-0.0007903892159627548
1.275,0.01658002473414,0.01894779130816,9.77483749389648,0.006662203834388236,0.0022256520968036275,-0.002218723196631681
1.2833333333333334,0.01092239934951,0.00838312879205,9.76396560668945,0.007268854245654281,-0.0017671995781939041,6.102270590404798e-05
1.2916666666666667,0.03114347904921,0.03270995244384,9.75271511077881,0.0072362185588818705,0.0006819788589663595,-0.002125288634484959
1.3,0.00550768896937,0.01129433885217,9.75479698181152,0.008010961248310236,-0.0015454612488230793,-0.0014564977544380144
1.3083333333333333,0.01659453287721,0.01738139986992,9.74740695953369,0.009182686589215163,0.0007767541042596035,-0.0007818951885016416
1.3166666666666667,6.437558477e-05,0.03491302579641,9.78021049499512,0.007320711505653712,0.001535849681986568,-0.003102545999462517
1.325,0.01828279905021,0.01914814859629,9.78767967224121,0.008239405334082057,-0.0009745749583874724,-0.00180251650122203
1.3333333333333333,0.0110439825803,0.0030399588868,9.76039600372314,0.006323784199312449,-0.0012821471777509639,-5.454043462165454e-05
1.3416666666666666,0.01839711144567,0.02723087370396,9.74731540679932,0.006491875957326336,0.0012810295083384136,-0.0022714748522355615
1.35,0.02381896786392,0.02434112504125,9.76933097839355,0.007123114835594183,-0.0014421919760687222,-0.003430235488029176
1.3583333333333334,0.02029993571341,0.00834013149142,9.76034832000732,0.005866449740226733,-0.0030073236864042877,-0.0015901664648796153
1.3666666666666667,0.00591540103778,0.01080079283565,9.77682018280029,0.005318810193349366,0.000997598298100283,-0.0016107310619220723
1.375,0.02224534191191,0.01435575541109,9.72366809844971,0.006464158796192201,0.00011019849801935842,-0.0018646569700029292
1.3833333333333333,0.01861169748008,0.01705953106284,9.75659942626953,0.006178939444931107,0.00017010356295658132,-0.0013782634963020114
1.3916666666666666,0.0185687802732,0.01548590511084,9.73465442657471,0.007295677271258446,-0.0012629239140407895,-0.002001008087034616
1.4,0.00404135650024,0.02356861717999,9.75290107727051,0.007809563852062311,-0.00129913523267319,-0.0035741866270289835
1.4083333333333334,0.01700230687857,0.01529993116856,9.7731294631958,0.006380112657110867,-0.0018074341166000641,-0.0020828184971792185
1.4166666666666667,-0.01218129135668,0.02483467012644,9.76573371887207,0.007094503018781294,-0.0002610787972655906,-0.0020063726401404833
1.425,0.00806840695441,-0.00354065722786,9.79349422454834,0.005691204897972386,0.0003100310595617968,-0.0018651040377679145
1.4333333333333333,0.00611585797742,0.02583605237305,9.75837421417236,0.008353404753345717,-0.0009486460032947018,-0.002375191192754904
1.4416666666666667,0.01904802024364,0.0101427314803,9.765869140625,0.0073529003847354404,-0.001952279391130016,-0.0025401537364880236
1.45,0.01004974450916,0.0181682202965,9.77678489685059,0.007494391740767677,0.0001412686511365445,-0.0017224941020630633
1.4583333333333333,0.01365491002798,0.02962708100677,9.7638463973999,0.007638119215847926,8.784585748171506e-05,-0.0009781513704705512
1.4666666666666666,0.01002828590572,0.01744578406215,9.76581954956055,0.005633981784495217,0.00016563303159813255,-0.0020935479935025847
1.475,0.00635887729004,0.01048606820405,9.75857353210449,0.006805706605251535,0.0012211245084197669,-0.0028727607103955647
1.4833333333333334,-0.00473518203944,0.01846864074469,9.76948833465576,0.006752507881882671,-0.0012271596631733739,-0.0007126020906104874
1.4916666666666667,0.04662914946675,0.01349738426507,9.75668430328369,0.008922948280040368,0.0011084672027114784,-0.0029594892560669845
1.5,0.02640114352107,0.01985629275441,9.77311515808105,0.006579945446218409,-0.0015539552762841922,-0.0027708329010106424
1.5083333333333333,0.01371915265918,0.01291803456843,9.76222896575928,0.007639907486907867,-0.0009960334308855956,-0.0005145577026000386
1.5166666666666666,0.02113665081561,0.0080326423049,9.76045513153076,0.006635827616474925,0.00033908948900963855,-0.001952279391130016
1.525,0.02475599013269,0.01037162262946,9.75676345825195,0.008755751697853843,-0.001312546875512512,-0.000999162905240841
1.5333333333333334,0.02853269129992,0.01110836490989,9.75859546661377,0.009184028572733207,-0.00033752488186925515,-0.0008051419970784561
1.5416666666666667,0.00846181344241,0.01785349659622,9.8043155670166,0.007951949863773126,-0.0001801622463220534,-0.0029514422963708574
1.55,0.00113014923409,0.01261046249419,9.77144145965576,0.007609955247022935,-0.0008601294466376447,-0.0017452939078934687
1.5583333333333333,0.03414767235518,0.01505673397332,9.76588344573975,0.006866506260848936,-0.0011806663060938743,-0.0025723413151980557
1.5666666666666667,0.00678804796189,0.00072243716568,9.74961853027344,0.008239405334082057,-0.0013264054560794924,-0.003316684176827895
1.575,0.02520656771958,0.01650161482394,9.78420829772949,0.008269357573967165,-0.0011958660899561598,-0.0006848847344204492
1.5833333333333333,0.01062202174217,0.01670904457569,9.74944019317627,0.008897019910114783,0.00043520580756086045,-0.000637944244557563
1.5916666666666666,0.01792502403259,0.01394804380834,9.76228618621826,0.008125406955115965,-0.0006544852317148039,-0.0009741278906224873
1.6,0.00329030770808,0.02723087370396,9.74933242797852,0.008123171356216386,0.0006305678214902498,-0.0013259582582773551
1.6083333333333334,0.02155151590705,0.02617225237191,9.75482559204102,0.006892882478762246,0.00022374989049381606,-0.0020948890667605627
1.6166666666666667,0.00150209700223,0.00508567132056,9.78440952301025,0.007006880857728512,0.0012001128436123245,-0.00147125047053514
1.625,0.02332542091608,-0.00038625352317,9.73685741424561,0.007179890621232064,-0.0009870924006780731,-0.003546469465894847
1.6333333333333333,0.0343981385231,0.00597260566428,9.75690841674805,0.007782965010526487,-0.001311652870019519,-0.0008266005996139061
1.6416666666666666,0.01793217658997,0.03572129830718,9.74556922912598,0.006235714710420203,-8.985758927853411e-05,-0.0018351514077715263
1.65,0.01434151735157,0.01060767099261,9.74773120880127,0.008381120874182633,0.0004906403573942351,-0.0008958936324864841
1.6583333333333334,0.00695256330073,0.01474200934172,9.7330379486084,0.008609564959954456,0.00045577024205678996,-0.0019549615376457975
1.6666666666666667,0.00877653807402,0.0139265852049,9.75687122344971,0.006954127901752935,-0.0016491774593052689,0.00029170189887239183
1.675,0.00890528969467,0.02002080716193,9.76045513153076,0.008325239744223507,-0.00031114872897452167,-0.0010335860178317024
1.6833333333333333,0.01256039179862,0.03537080809474,9.76026153564453,0.007841082259533626,-0.0024637080094864396,-0.001963455695144237
1.6916666666666667,0.02562151663005,0.01960593648255,9.76411533355713,0.007268406917814815,-0.0006187209808472139,0.000255937696768952
1.7,-0.00726013537496,0.01461325772107,9.76423835754395,0.006434206556307095,0.0015684845885360645,-0.001960326480863296
1.7083333333333333,0.01454888284206,0.02059303410351,9.75680637359619,0.006839236427554091,-0.000934787227671993,0.00011556312427110213
1.7166666666666666,0.02565724775195,0.01216698624194,9.76790046691895,0.008042701759255283,-0.003025205876856484,-0.00038625354526447987
1.725,0.00937737710774,0.02544266171753,9.75675678253174,0.008407497092095944,0.001248841799591229,-0.003047111157045463
1.7333333333333334,0.0276457387954,0.01180219091475,9.77707767486572,0.009099088298121904,-0.0005033813660766166,-3.1740742573800875e-05
1.7416666666666667,0.02032838016748,0.01791787147522,9.76968193054199,0.006979610504285059,0.00020318547225231246,-0.0008364357003328226
1.75,0.01845444738865,0.02192344330251,9.75315284729004,0.00784018812400348,-0.0015114853990529315,-0.0007962010318895101
1.7583333333333333,0.01492073200643,0.02826093696058,9.76957321166992,0.006298303157226328,-0.0037172441506474274,-0.0008663882653108093
1.7666666666666666,0.02436973527074,0.03994147479534,9.78038215637207,0.006522723373038631,-0.0009477518677647313,-0.001743505896907832
1.775,-0.00112280342728,0.01092950068414,9.76799488067627,0.0057220512733874625,-0.001321487840701458,-0.0018838801036759516
1.7833333333333334,0.02637968398631,0.04465520009398,9.78399467468262,0.007091373284351919,0.0011022085140754661,-0.003303272403951421
1.7916666666666667,0.00438469275832,0.00435608113185,9.74612808227539,0.006693049689654704,0.00039675931264971206,-0.0017533407375524446
1.8,0.00796081870794,0.01956306770444,9.74591159820557,0.007925574686156858,-0.0011770898940107958,-0.0020863951693366016
1.8083333333333333,0.00448470562696,0.00791821535677,9.78454399108887,0.007896516581801898,-0.0012320774085885604,-0.0018002814224712335
1.8166666666666667,0.03201625868678,0.00451340526342,9.75160789489746,0.006324231007003131,-0.0018601864223898802,-0.0011936307511308845
1.825,0.02297493070364,0.01036446914077,9.7423791885376,0.007297018214479097,-0.001601789706621495,-0.0013103115366874113
1.8333333333333333,0.021215332672,0.04042071476579,9.75478267669678,0.008125854803103865,-0.0011761957584808256,-0.0018861157025753567
1.8416666666666666,0.01411255914718,-0.00090841104975,9.76454639434814,0.006921493255277917,-0.0009365754337133578,-0.004262200510711797
1.85,0.00863348133862,0.0327457152307,9.77506828308105,0.008154465059470753,-0.0011712781431027909,-0.0013138879487703155
1.8583333333333334,0.01238869968802,0.02594336494803,9.76417541503906,0.006036329249151952,0.0001526685052877715,0.00022285578747304637
1.8666666666666667,0.01238863077015,0.0115303825587,9.7460765838623,0.007838399332794758,-0.00010818675809523921,-0.0006634262619223261
1.875,0.01240323763341,0.01783921010792,9.75881099700928,0.007894280462753884,0.0006296737509788554,-0.0014699093972773364
1.8833333333333333,0.00864063389599,0.02547842636704,9.73674297332764,0.007981456856413377,-8.225771360199189e-05,-0.0010639855205375223
1.8916666666666666,0.01236726529896,0.02308937720954,9.77890205383301,0.008124959627276503,-0.00010997496413677857,-0.0009209286471048381
1.9,0.01413401775062,0.02866144105792,9.7385311126709,0.007264830375694761,0.0005389220505522514,-0.0020121841309743583
1.9083333333333334,0.02698023431003,0.01872618123889,9.76797103881836,0.0062075507415953884,-0.0008686234740987578,-0.0026018467473923066
1.9166666666666667,0.02153020910919,0.02261016331613,9.74961185455322,0.008208112150976474,0.0012832649772006664,-0.002076113130889678
1.925,0.00675943680108,0.04751633480191,9.78224277496338,0.007581790758049335,-0.0011775368317388036,-0.0020573365448330323
1.9333333333333333,0.00327600212768,0.00938452966511,9.76268672943115,0.006635827616474925,0.0004307353249663874,-0.0010385036332099115
1.9416666666666667,0.02150174602866,0.02665150351822,9.77521991729736,0.0069505523999300965,0.00019200915198366533,-0.0024105082458201824
1.95,0.00865458324552,0.01750303991139,9.74059009552002,0.006922387390807887,-0.0006696849505583385,-0.002890195833082776
1.9583333333333333,0.03620757162571,0.02033553086221,9.76432323455811,0.007695341809176312,-2.4140846579008175e-05,-0.0008641529264857087
1.9666666666666666,0.03072146140039,0.00404850905761,9.73711490631104,0.006376089827448563,0.001076726496710703,-0.002559823937926031
1.975,0.02322528138757,0.03203042969108,9.73854541778564,0.007928256052449727,-0.0014381686262578102,0.0012922060724269394
1.9833333333333334,0.03431218862534,0.0287186652422,9.71660041809082,0.007380169697881678,-0.00020519719592183126,-0.002064489499036167
1.9916666666666667,-0.00211724149995,0.01027148216963,9.79568958282471,0.007641248430128692,-0.0012150893536663344,0.0004892991866084801
2.0,0.01070780586451,0.01560035068542,9.74249362945557,0.007382853144769156,-0.0015423320345423126,-0.0010814205782061575
2.0083333333333333,-0.00190980907064,0.00371947837994,9.76650619506836,0.008326133879753478,-0.0008225771197658421,-0.0006866731355177168
2.0166666666666666,0.02001365460455,0.02215235494077,9.72590637207031,0.006267455221365426,-0.0020001136914301666,-0.0008194475803920204
2.025,0.01658744364977,0.01595083996654,9.76630592346191,0.0087544097143358,-0.0009799395765119159,-0.0026031879506874366
2.033333333333333,0.00574373267591,-0.00173814082518,9.7629508972168,0.006462817852971375,0.0009430577212505262,-0.0013572520915688736
2.0416666666666665,0.01472770329565,0.03191598504782,9.77157783508301,0.007179890621232064,-0.0003250073420508774,-0.002663987346210358
2.05,-0.00165945955086,0.01421985216439,9.77737140655518,0.0074673450512437786,-0.0006254268022669622,-0.0009455165289396306
2.058333333333333,0.02215260080993,0.01450589485466,9.75170803070068,0.006524510603801528,-0.001952726328857849,-0.0021074065740697397
2.066666666666667,-0.00879056192935,0.01519973855466,9.76823139190674,0.007582237565740191,-0.001464097646369157,-0.0020832656949813563
2.075,0.03893292322755,0.00645901728421,9.74632835388184,0.00809590152292154,-0.00014171570264692932,-0.0013791575017950042
2.0833333333333335,0.01147316023707,0.01261046249419,9.7517786026001,0.008525518820873122,-0.0010340328905409596,-0.0021159004714937004
2.091666666666667,0.00427043577656,0.01363332103938,9.77376747131348,0.006550440014024156,2.570553092909246e-05,-0.0016076015875668265
2.1,0.03353967890143,0.00840459018946,9.75183582305908,0.008582295126659612,0.0008174359705052278,0.0004727582644698153
2.1083333333333334,0.04078566655517,0.01843284256756,9.76082801818848,0.006323336871473161,-0.0014323568753496312,-0.0013956984889522451
2.1166666666666667,0.02260292693973,0.03227363154292,9.79543113708496,0.008040913488195342,-0.0010809734454225962,-0.000770271816722435
2.125,0.01901941001415,0.0195630248636,9.76268672943115,0.005431466588797589,0.000951104550909502,-0.0036747732331187753
2.1333333333333333,0.00984946452081,-0.00202425452881,9.76121997833252,0.007237113734709234,-8.941055605727998e-07,-0.0014940504064026978
2.1416666666666666,0.00970640778542,0.02738108299673,9.73145008087158,0.007381511161251113,0.0001253982900087693,-6.482264374240636e-05
2.15,0.01163068041205,0.01763175427914,9.77007579803467,0.007752118635111409,-0.0003209838947120143,-0.002264322548218188
2.158333333333333,0.00610121712089,0.03276711702347,9.76251602172852,0.006805706605251535,0.0025108714480647216,0.0012895235357995266
2.1666666666666665,0.01875475421548,-0.00032187794568,9.71910381317139,0.00595183630238011,-0.0005623923279930698,8.516354029210587e-05
2.175,0.00240335520357,-0.00670221401379,9.75036907196045,0.006634038305117419,0.001898856093581353,3.554068853928491e-05
2.183333333333333,0.01150197535753,-0.04097148030996,9.74728775024414,0.008036891178681647,0.00047499357078571524,-0.0028432555382756175
2.191666666666667,0.03730905056,-0.12714180350304,9.69741535186768,0.007750776651593365,0.0010315740828520294,-0.0013022645769912836
2.2,0.02065055444837,-0.12197025865316,9.64426517486572,0.006376983962978708,0.0007606603149045001,-0.002615705588033766
2.2083333333333335,-0.05850310251117,-0.08207887411118,9.49720859527588,0.006481594178953717,0.005465442178493432,-0.004514785735646307
2.216666666666667,-0.07551971822977,-0.06197938323021,9.46761035919189,0.007669860246941582,0.01350568571522697,-0.004755299350702081
2.225,0.0443405546248,-0.02759551629424,9.5987377166748,0.007581566053832385,0.01533882583820441,-0.004570219537765969
2.2333333333333334,0.18588085472584,0.03424055874348,9.72389507293701,0.006975139826634856,0.018817120200713532,-0.0025110953720587576
2.2416666666666667,0.0544402115047,0.03579262271523,9.80828475952148,0.006459688118541825,0.01842416037889927,-0.004910874771741335
2.25,0.00704555027187,0.07906037569046,9.85337734222412,0.007518309216010632,0.01830122012448382,-0.006026270614550455
2.2583333333333333,-0.28398931026459,0.88806122541428,10.91470909118652,0.0057148981891470005,0.0011563018931230857,-0.013060197121505471
2.2666666666666666,0.71978342533112,0.12779983878136,10.34102916717529,0.013682719348690043,-0.0007000845833011358,0.015508035395667998
2.275,-0.38019505143166,-0.07702181488276,9.99190616607666,-0.0006120151594276402,-0.02489055477399088,0.006996598559207285
2.283333333333333,-0.54824393987656,0.1663393676281,9.17111778259277,0.00873026961547033,-0.017691664162856738,0.0038971820341000126
2.2916666666666665,-0.56662678718567,-0.39035925269127,9.45379066467285,0.009460752856235797,0.00521643453597637,-0.0008239181280050695
2.3,0.98493218421936,-0.05692232400179,9.73940372467041,0.002573458854573454,0.0005447337364418546,-0.00032143089745842343
2.308333333333333,0.47678700089455,0.16902178525925,9.6572322845459,0.008859019930310809,-0.010068968914939441,0.0018854448408534875
2.316666666666667,-0.11258563399315,-0.23522122204304,9.55324268341064,0.015885794393322755,-0.0024918719783112563,0.0031309338922813697
2.325,0.20730368793011,-0.55359429121017,9.54026889801025,0.005767203297134505,0.004882932906390075,-0.005397714663021302
2.3333333333333335,0.16602464020252,0.1204252615571,9.42214679718018,0.002423696354776924,0.0011357374261177808,-0.011056061250598938
2.341666666666667,-0.86178863048553,0.26838919520378,9.49204444885254,0.007702942741404673,0.008230017691239584,-0.012267128554825884
2.35,-0.23209545016289,0.25421920418739,9.87253952026367,0.006591569208109072,0.023453504727405684,-0.005478183739833798
2.3583333333333334,0.42708194255829,0.36598235368729,10.42487525939941,0.005559771136244603,0.010045945055077847,-0.0007510484879936843
2.3666666666666667,0.1593438833952,0.24158011376858,10.46028900146484,0.011315127527717498,-0.006717413972588341,0.004833757012683338
2.375,-0.07455408573151,-0.28856715559959,10.20264339447021,0.009126804939107428,-0.01466019933728994,0.0033893299578638195
2.3833333333333333,0.17294856905937,-0.12496727705002,9.84054374694824,0.002750939035652902,-0.018317092980699737,-0.0010662207943440468
2.3916666666666666,-0.1164482831955,0.1621620953083,9.3594446182251,0.004668348181408321,-0.018884847716185486,-0.0009473047349811699
2.4,-0.39102447032928,-0.0615931302309,9.07633495330811,0.009225156726520904,-0.006611015485553216,0.001141101979223823
2.408333333333333,0.01123711653054,-0.18146762251854,9.31247901916504,0.008455331522433246,0.007575085001648338,0.0006971787078472208
2.4166666666666665,0.44666641950607,-0.12581850588322,9.62779140472412,0.009225603014062977,0.008303334203960224,-0.0011127142164419476
2.425,0.23573625087738,-0.15000227093697,9.80800724029541,0.009137980853010019,0.008014090462591177,-0.004629230922303254
2.433333333333333,0.09009026736021,-0.02505620382726,9.91761684417725,0.006506628413349158,0.006556251114746576,-0.0069606110345317666
2.441666666666667,0.07717202603817,0.35497415065765,9.93989849090576,0.00565342910223658,0.0043614464336552425,-0.005995424759283987
2.45,-0.20895600318909,0.35062521696091,9.83769130706787,0.010185424996278844,7.62224857026831e-05,-6.705790942110714e-06
2.4583333333333335,-0.44044345617294,0.06076340004802,9.81402206420898,0.0076081664558142114,0.0014960619512710885,0.0024420253529199762
2.466666666666667,-0.16729068756104,-0.00384822953492,9.990797996521,0.005918307520374948,0.002578376860063119,0.002261415957559761
2.475,0.1694937646389,-0.00050785182975,10.07465744018555,0.007132949806276122,-0.004942614762537773,-0.0005583689131635819
2.4833333333333334,0.1518262475729,-0.08781545609236,9.98109149932861,0.0075116034596096354,-0.008520377671612508,-0.0007827893890501881
2.4916666666666667,0.19967161118984,-0.02719510905445,9.75463199615479,0.004969661972210104,-0.011245611741185253,-0.0009839630563599799
2.5,0.15606787800789,0.03940501064062,9.48785305023193,0.007605484569372734,-0.012073999441524728,0.0015970957551630183
2.5083333333333333,-0.08412458747625,-0.20215365290642,9.22535037994385,0.00930830977036931,-0.004864828092315364,0.0011554078876302675
2.5166666666666666,-0.15335695445538,-0.18269075453281,9.26171588897705,0.007943903164151302,0.003867676601905762,-0.0039054526577158724
2.525,0.01964170671999,0.08736482262611,9.5255765914917,0.006235491566649255,0.013887244918921517,-0.006145857470616625
2.533333333333333,0.11383034288883,0.16782715916634,9.85543060302734,0.008644882013019736,0.010598949415135561,-0.006344572460274639
2.5416666666666665,0.11499625444412,0.19975744187832,10.14419078826904,0.007813811385941389,0.012647792062544459,-0.0014140277471696014
2.55,0.09198556095362,0.21090157330036,10.21727085113525,0.007352453056896151,0.0007150608982994174,0.0014768386875607395
2.558333333333333,-0.0394622348249,0.05825990438461,10.0848217010498,0.007967596975474526,-0.006899364571243686,0.0009783748393343804
2.566666666666667,-0.25276002287865,-0.10037584602833,9.84637451171875,0.006482488834632471,-0.008455108898810905,0.000192903255004435
2.575,-0.21413461863995,-0.00148072373122,9.71806716918945,0.004189107661910713,-0.006986093116915107,-0.0012794649011980304
2.5833333333333335,-0.01960594207048,0.02062164619565,9.66800403594971,0.009710655154431437,-0.006638732646687352,-0.001972396660333183
2.591666666666667,0.13694833219051,-0.07485450059175,9.67884635925293,0.009164804918911577,-0.004903274879810192,4.1799434066573196e-05
2.6,0.22721721231937,-0.11433104425669,9.66488552093506,0.006758766830592987,-0.0036837145884193526,-0.0005409338229855714
2.6083333333333334,0.21804010868073,-0.05657183378935,9.59600353240967,0.00826846343843702,-0.0014345920841377542,-0.004855438889026888
2.6166666666666667,0.05504827946424,-0.0471586920321,9.51545524597168,0.007686402014321735,0.003163569058905171,-0.005558654377092118
2.625,-0.11414507031441,0.06796631217003,9.50604915618896,0.006194139228793393,0.0062799731187860594,-0.0026706931026115304
2.6333333333333333,-0.13513150811195,0.19538706541061,9.62990856170654,0.007363181642959451,0.008466508476633229,-0.0016916475966110092
2.6416666666666666,-0.06398211419582,0.16833508014679,9.88127326965332,0.010537257704602801,0.010362460710336526,0.0012627005101953617
2.65,0.01103683654219,0.02527099475265,10.08553695678711,0.008080701218910821,0.008473661040724908,0.0017405998263980143
2.658333333333333,0.0690319314599,0.03041389770806,10.20444011688232,0.007010457399848744,-0.0002892430911832874,0.0012001128436123245
2.6666666666666665,0.0562213473022,0.00281106727198,10.08048057556152,0.006454770633200943,-0.00897502972410814,-0.00028477257607961357
2.675,-0.05662905797362,-0.04399713873863,9.84528732299805,0.004800676078666248,-0.011495067751838997,-0.00020117374858296815
2.683333333333333,-0.07996165007353,-0.01681630685925,9.54623508453369,0.0071418901212793075,-0.008877125264534129,0.0007432251271987125
2.691666666666667,-0.06097083166242,-0.03821764141321,9.45326137542725,0.00856485974389792,-0.004430739076416364,0.0016127427368274408
2.7,0.01463485043496,-0.08682837337255,9.44686126708984,0.008296179559273939,-8.85164347473796e-05,-0.0018646569700029292
2.7083333333333335,0.13734173774719,-0.04060668870807,9.59046745300293,0.006057787981724554,0.003280249324312914,-0.0021552411344441945
2.716666666666667,0.22645874321461,0.09708539396524,9.74321556091309,0.0071995605625957675,0.0038341480799749033,-0.004136131562164186
2.725,0.11259289830923,0.11461000144482,9.78696346282959,0.007886234803429452,0.0038694651330401816,-0.0035643513962727393
2.7333333333333334,-0.03412614762783,0.0985948368907,9.80762195587158,0.008659188701649093,0.004557479016722997,-0.0009110934813671708
2.7416666666666667,-0.14068932831287,0.09707836806774,9.80960083007812,0.008093666444170745,0.0013802753012447065,-0.0008780115070526892
2.75,-0.16420781612396,0.02052150666714,9.88815402984619,0.005632193513435101,0.0017218235004154982,-0.0005650746045460035
2.7583333333333333,-0.10008973628283,-0.00315440399572,9.94719982147217,0.006121716851602721,0.000383794802594126,-3.621127393224962e-05
2.7666666666666666,0.02801768667996,0.01497090049088,9.975998878479,0.008215711522758835,-0.0023689325041188914,-0.0009821747852998646
2.775,0.08863087743521,0.00784666836262,9.94129276275635,0.006626215269415328,-0.008671481374704167,-0.0014296745987966973
2.783333333333333,0.09488961100578,-0.05185095965862,9.77588367462158,0.008541165932574698,-0.007664271769841677,-0.001269629670441787
2.7916666666666665,0.06230126321316,-0.0575660802424,9.56542491912842,0.008308699537289181,-0.006501487784237151,-0.0021686529073204944
2.8,-0.00167398923077,0.00258222152479,9.44702339172363,0.007697130080236428,-0.001565131580298239,-0.0033649656749301826
2.808333333333333,-0.03834639117122,0.04322462901473,9.44256114959717,0.006880811909180902,0.005080977944586285,-0.005124118553502263
2.816666666666667,0.01809681579471,0.07089910656214,9.58659076690674,0.007364969914019567,0.007290311937929491,-0.0019715025248030382
2.825,0.08707871288061,0.12481711059809,9.75386714935303,0.007935857504826869,0.008841139300304439,0.0011013143785453211
2.8333333333333335,0.07222225517035,0.06385342776775,9.95850276947021,0.007997996023050314,0.006260303177422355,0.0005849684699037431
2.841666666666667,0.01152354385704,0.01741727814078,9.99438953399658,0.006374301036239839,0.002072312924849715,-0.002687234089768597
2.85,-0.05098546296358,0.02207367308438,9.94308853149414,0.0054672314898507645,-0.0018141398730010616,-0.002130206249862993
2.8583333333333334,-0.12036088854074,-0.02622947469354,9.81965923309326,0.006756307047625242,-0.0023769789436664107,-0.0014663328551571054
2.8666666666666667,-0.10372337698936,-0.02628669701517,9.78852939605713,0.006761896565022361,-0.005042754821011189,-0.001952726328857849
2.875,-0.01739571429789,-0.00248918938451,9.74580574035645,0.008563071472837806,-0.004346246389718653,-0.0013885457948232397
2.8833333333333333,0.08386690914631,-0.04522013664246,9.75030326843262,0.007822753261390574,-0.006218950839566318,-0.0024266024252867424
2.8916666666666666,0.13161231577396,0.02203790843487,9.68833255767822,0.009108923268803842,-0.005670863964849661,-0.0022616398815536233
2.9,0.11346551030874,0.07083459943533,9.62868404388428,0.00838782767088085,-0.0022777338009458783,-0.0005530042950391384
2.908333333333333,0.04582111164927,0.06793770194054,9.56291484832764,0.006354183767036846,-0.002042583698698754,-0.0022138049310677114
2.9166666666666665,-0.02363996952772,0.07342406362295,9.55373191833496,0.0077114357285685674,0.005194528995713261,-0.0026380579359877292
2.925,-0.06418967992067,0.0841960683465,9.68908309936523,0.005082318887806936,0.004409951855751392,-0.0006245327317553933
2.933333333333333,-0.02210228517652,0.04536332935095,9.81078910827637,0.00734529997265569,0.0031242281358803722,-0.0009262932002108801
2.941666666666667,0.02035699039698,-0.04367525875568,9.97207164764404,0.0063121614777191795,0.00496429663888115,0.00011198671218819798
2.95,0.03810319304466,0.00566505175084,10.02224922180176,0.00878659651282292,-0.0009361283659483727,0.0016069309859192615
2.9583333333333335,0.02900477871299,-0.00592255406082,9.96392440795898,0.007844657761356465,-0.0027185275329486593,-0.0014918148075032925
2.966666666666667,-0.0403634943068,-0.04944045096636,9.8056468963623,0.005956306980030313,-0.003338589717091003,-0.0028852783477418937
2.975,-0.07159280776978,-0.00460643088445,9.66548633575439,0.00847723706269653,-0.004408387248611009,-0.0017877636550877518
2.9833333333333334,-0.01097961422056,0.02679454907775,9.635422706604,0.006387265741351329,-0.004045379926756159,-0.002190558187509473
2.9916666666666667,0.04971212893724,0.0304425675422,9.60047340393066,0.00704465613331571,-0.0035285870153681717,-0.00216865264724619
3.0,0.0810991153121,0.06434693187475,9.69125270843506,0.00612529287357417,-0.0016652713786975248,-0.0016737654061586378
3.0083333333333333,0.10853008925915,0.1034587174654,9.69216632843018,0.008551001423405244,0.0015868138467534207,-0.0005105342877705509
3.0166666666666666,0.04659361764789,0.01708098873496,9.74184322357178,0.006772625151085662,0.0035028817892137094,-0.00024498489412793533
3.025,-0.02331129647791,0.01869026944041,9.72176361083984,0.00625627930746266,0.003628950477687016,-0.0016201190948760037
3.033333333333333,-0.08378840237856,-0.01251032203436,9.78851509094238,0.007924679510329496,0.00024118494816245133,-0.0004376646152497904
3.0416666666666665,-0.06535562127829,-0.02100792899728,9.86562156677246,0.006689473147534474,0.0021223829540865974,-0.0008015654549582253
3.05,-0.0362577624619,-0.00278960866854,9.91095733642578,0.00878033912455843,0.0010887968712361442,-0.0015642373147311162
3.058333333333333,0.01125879772007,0.00014292541891,9.91818332672119,0.005584806410937262,-0.0033032726640257254,-0.0021977110116754555
3.066666666666667,0.04628604650497,-0.00800403114408,9.85606002807617,0.00793943300664971,-0.006666450327970271,-0.0014734856793230885
3.075,0.05021291226149,0.02124397456646,9.74549007415771,0.0072482891284632155,-0.00459927816226954,-0.0007532838268187852
3.0833333333333335,0.02107220515609,0.0396196320653,9.64987087249756,0.008394086099442557,-0.004913109330343347,-0.0009218227826348084
3.091666666666667,0.00102285656612,0.07258705049753,9.54657077789307,0.006555804827204503,-0.0019089151182943055,-0.0005547924360619272
3.1,0.02149429358542,0.05060636252165,9.59834289550781,0.008666341265740944,0.0011862543930823218,-0.0005355692048611279
3.1083333333333334,0.04900405555964,0.05366059392691,9.69349670410156,0.007657789677360238,0.003953063424133443,-0.0010823146487177265
3.1166666666666667,0.06722956895828,0.02305361256003,9.76381683349609,0.004944403033597714,0.0025642943555019278,0.0005950271695239903
3.125,0.03787432610989,0.00818286277354,9.82099723815918,0.007916633330856456,0.0035046698001995205,-0.0003330543017470052
3.1333333333333333,-0.02455570921302,0.0004720876459,9.86706066131592,0.00723756002225113,-8.449296302661587e-05,-0.001263371111842927
3.1416666666666666,-0.05758753791451,0.01543583534658,9.86126708984375,0.008071760903907635,-0.0018369396788316416,-0.0019871492463931564
3.15,-0.05358210578561,-0.03191593289375,9.84408473968506,0.00835876852622867,-0.0026103407748534198,-0.0021212650245997426
3.158333333333333,-0.05182234197855,0.0151997897774,9.7935209274292,0.007841081219236235,-0.0005829567299797984,2.9281953171209133e-05
3.1666666666666665,-0.00427766377106,0.04389716312289,9.80928611755371,0.007275783145826228,-0.004753064271951286,-0.0040118514048253
3.175,0.05654307082295,0.03301041573286,9.77650451660156,0.007386875454282676,-0.002457448800701819,-0.0011498196706044934
3.183333333333333,0.08405305445194,0.05474070832133,9.73565578460693,0.005983130005634478,-0.002244651826631397,-0.0021811702845925193
3.191666666666667,0.06401079148054,0.0538966730237,9.68441963195801,0.006017553443318219,-0.004021686115432935,-4.247000726841309e-05
3.2,0.01680918037891,0.0218876991421,9.63764762878418,0.007638567063835824,0.000364124503628167,0.00030421940618156884
3.2083333333333335,0.00956335105002,0.00848327204585,9.66547203063965,0.007381511681399722,-0.00025213775080329355,-0.000975916161682428
3.216666666666667,-0.00133042875677,0.00813278276473,9.70396900177002,0.007684612702964403,0.004286117985954753,-0.0019473616457148294
3.225,-0.00509262876585,-0.004713579081,9.82885837554932,0.007623367800122322,0.005648288473124749,-0.0028504083624416006
3.2333333333333334,0.02017846517265,-0.01218119077384,9.86747646331787,0.007915740235623702,0.00277239776822533,-0.004102603040233328
3.2416666666666667,0.01439867261797,0.01339727453887,9.91450595855713,0.007150831476579711,0.00022509104502497059,-0.0016679536552504587
3.25,-0.02057872898877,0.03252397850156,9.85547351837158,0.006787378127257267,-0.003327413283039804,-0.0019674790449549745
3.2583333333333333,-0.04239489883184,0.02889748476446,9.76403141021729,0.0081879943616247,-0.0021328883963787747,-0.0004948873711248788
3.2666666666666666,-0.01112982351333,0.03105049207807,9.74379539489746,0.007158878696350142,-0.0028629257397136255,-0.001544120045527949
3.275,0.02007802948356,0.0508781708777,9.70114326477051,0.005954071381130907,-0.00169343586767095,-0.0015579787561322562
3.283333333333333,0.04597132280469,0.02581460960209,9.69990634918213,0.006639403118297766,-0.0011256786614791325,-0.002022913497260572
3.2916666666666665,0.06625642627478,0.01349740847945,9.69471168518066,0.006777989964266009,9.365754337131833e-05,-0.0029822886717859338
3.3,0.05349612608552,0.00903404317796,9.71683120727539,0.008667681688812988,0.000705225602524598,-0.00018731508674263667
3.308333333333333,0.02604350075126,-0.00298273540102,9.72634983062744,0.0057779329234951965,0.00044414687027775803,0.00010349270910898548
3.316666666666667,-0.2252151966095,0.04659287258983,9.75844860076904,0.003888240938873914,0.004747475794851381,-0.0650729930107844
3.325,-0.04799807444215,2.18767404556274,9.79078483581543,-0.005748203827381215,0.0033269662152748186,-0.14230538034762516
3.3333333333333335,0.15758617222309,3.64696311950684,9.86403942108154,0.0011402081037679822,0.0046781836722388686,-0.06564208972978819
3.341666666666667,0.32286503911018,3.20925164222717,9.96266555786133,0.007679248930081448,-0.0016706360618405445,0.008398557297241543
3.35,-0.24064247310162,1.65653955936432,9.80966949462891,0.01297324595221171,-0.003316684176827895,0.04232315161943185
3.3583333333333334,-0.06450434029102,0.02651558816433,9.74592018127441,-0.005518865606079247,0.00036635967990674014,0.007924679510329496
3.3666666666666667,0.14067742228508,1.13829970359802,9.73980140686035,-0.02260432668550958,-0.0011560783592405059,0.037055976582608355
3.375,-0.0395863763988,1.36283016204834,9.65029430389404,-0.0012566654854790813,-0.0025835180093237336,0.07325473154459061
3.3833333333333333,-0.13989134132862,-0.2360941618681,9.63717269897461,0.02461695866447184,0.00038625361028305595,0.09437328273853939
3.3916666666666666,0.04418625682592,-2.02056097984314,9.80650329589844,0.02274760891334498,0.0012166540908438697,0.08340551984223885
3.4,0.15615226328373,-1.97694373130798,9.79456996917725,0.007790564382308846,0.0008724234200642418,0.05417675679569841
3.408333333333333,-0.09408129751682,-1.79406154155731,9.73905372619629,0.0004901933871570267,0.0007356253653047222,0.008373074174560811
3.4166666666666665,-0.08055531978607,-1.06028735637665,9.70577812194824,-0.0075992256206624175,0.003894276743813282,-0.012148434793992465
3.425,0.02232402376831,-0.26313880085945,9.65608024597168,-0.0013626165146377635,0.0037621717302519994,-0.014497025584765545
3.433333333333333,-0.0232038218528,-0.36558896303177,9.74482536315918,0.013723402255232884,0.0020955599284824323,-0.008363462867798604
3.441666666666667,-0.05959033593535,-0.91200894117355,9.75698566436768,0.01382398756095098,0.005148482316287291,-0.020362357005393968
3.45,0.07589289546013,-0.51281547546387,9.81822109222412,0.0038953937630398974,0.001837163082676895,-0.03155834656533041
3.4583333333333335,0.05044782161713,0.24003900587559,9.82100486755371,-0.00011265728132638777,0.001372675409313564,-0.03584290254488799
3.466666666666667,0.0005782819353,0.63957017660141,9.7650728225708,0.0006618615897633666,0.0014920384714230248,-0.03338321320387464
3.475,-0.00864063389599,0.99204927682877,9.72493362426758,0.0002635375724453197,0.003092934172551527,-0.022187225724532633
3.4833333333333334,-0.00540061108768,0.98607635498047,9.70492649078369,0.006969328725912438,0.0035739629631092507,-0.0038272181395055654
3.4916666666666667,0.0219664555043,0.25931200385094,9.76560401916504,0.01026187228372643,0.003955746090797833,0.0007150607682622651
3.5,0.04745872691274,-0.1225428134203,9.76622676849365,0.0048024638295777545,0.0035073519467153018,0.009222473799782034
3.5083333333333333,-0.0128536587581,0.15211951732635,9.75923919677734,-0.001322828913959436,0.0033821771336978368,0.005250410125672214
3.5166666666666666,0.03901160508394,0.34936630725861,9.80172634124756,0.0013896635942729425,0.005528478473287455,0.004705900833373004
3.525,0.06275188922882,0.28234416246414,9.82174777984619,0.0044090577202214225,0.0009475282688635753,0.010543067765027827
3.533333333333333,-0.0263153091073,0.12928047776222,9.78549003601074,0.004216378015354167,0.0006243091328542374,0.02328094021114699
3.5416666666666665,0.00791819673032,-0.13502421975136,9.81608200073242,0.008102607279322714,0.0016847181762902794,0.01820018645062904
3.55,0.1415694206953,-0.54268616437912,9.86866283416748,0.004670583780307725,-0.0011069025955710954,0.008738316315092153
3.558333333333333,-0.0436824709177,-0.49301010370255,9.75402545928955,-0.0009879864711894676,-0.006885058922911547,-0.0033730126346263106
3.566666666666667,-0.17683973908424,-0.09780797362328,9.69263172149658,-0.0011985484965462458,-0.002206205299211048,-0.002203075824855802
3.575,0.09958949685097,-0.04341030493379,9.69642353057861,0.004796205921164655,0.0032319678262106256,-0.005309645694277839
3.5833333333333335,0.03965536132455,-0.19437851011753,9.73338794708252,0.005376926402059113,-0.0010385035031727592,-0.008202075825888498
3.591666666666667,0.05415417253971,-0.14059628546238,9.73932552337646,0.0074101219377666104,-0.0017958107448210322,-0.0073920166035432895
3.6,0.13480214774609,-0.1149962246418,9.76973247528076,0.007723506298149912,-0.00047700524569108376,-0.005063319418053646
3.6083333333333334,0.10897377878428,-0.06892496347427,9.76124858856201,0.004063932328744464,-0.0031409922668085614,-0.011207163393244597
3.6166666666666667,-0.10272197425365,0.21242512762547,9.7596321105957,0.002523388825336746,-0.005460748357072107,-0.01326405378057271
3.625,-0.1394234597683,0.30940338969231,9.7553129196167,0.005345632698804748,-0.0005489807501724985,-0.010154355477092819
3.6333333333333333,-0.0814278498292,0.0798614770174,9.77591323852539,0.006611686997460848,-0.0013979339578144981,-0.0009303166800587693
3.6416666666666666,-0.02376889623702,-0.06290925294161,9.81807804107666,0.00608997582050889,0.0015438966416826958,-0.0012262655276432288
3.65,0.0688601732254,0.08127785474062,9.90027904510498,0.0056076060867305145,-0.002264769095834564,-0.010103391312325967
3.658333333333333,0.19316253066063,0.15546704828739,9.89269638061523,0.0046160425532722075,-0.006140715281058794,-0.010881709503577345
3.6666666666666665,0.13154086470604,0.10153440386057,9.78977298736572,0.004890533318469827,-0.009514623611661074,0.0022390636096057976
3.675,-0.05434731021523,0.05202980339527,9.6722469329834,0.0018613039617652784,-0.011520549834222333,0.00046471130477368755
3.683333333333333,-0.06039145216346,-0.02575738728046,9.63585948944092,0.0038426421074360165,-0.0048616983578859884,-0.004860804222355844
3.691666666666667,0.14603263139725,-0.17592433094978,9.72199440002441,0.005330881283079318,-0.004617160872870519,-0.004006039783954273
3.7,-0.00195972737856,-0.1750874966383,9.69839000701904,0.004339317489546532,-0.006090198964280013,0.003824759656909341
3.7083333333333335,-0.1798150986433,-0.05016307905316,9.66604518890381,0.004815204870769338,-0.00402705144876189,-0.0025549064525851486
3.716666666666667,-0.21270409226418,0.00969925522804,9.70481300354004,0.005571394377986484,0.00038781824993281463,-0.008508753909721844
3.725,0.10714936256409,0.11436666548252,9.70155143737793,0.003845771061642479,0.0023964262614077736,-0.0120529885569402
3.7333333333333334,0.02587898634374,0.22212438285351,9.76290798187256,0.003772007221082547,-0.0013961456867543826,-0.011030131840376135
3.7416666666666667,-0.01080079283565,-0.05429723113775,9.83447265625,0.004257506689290472,0.0013006998398135735,-0.0020242548305928545
3.75,0.00690941838548,0.04824598878622,9.88484287261963,0.004831075646390644,-0.0013854164505053212,-0.010429739857671974
3.7583333333333333,-0.00979939475656,0.10114835202694,9.8651294708252,0.0036982436405967457,-0.004003804185054869,-0.004842922031903648
3.7666666666666666,0.00569347012788,-0.00427014101297,9.81299209594727,0.00481229880025952,-0.0026492343700389286,-0.002229452042769286
3.775,-0.02892631664872,0.00507166562602,9.81280612945557,0.004083826714250987,-0.005631970369664152,0.005938201125658208
3.783333333333333,-0.05088532343507,0.08418180793524,9.81804275512695,0.005367091431377349,-0.004982850341241151,0.00286627835783982
3.7916666666666665,0.04705855250359,-0.01499951165169,9.7711124420166,0.006194586036484073,-0.0048947798120516865,0.0007181901775989346
3.8,-0.02936241962016,-0.0513931773603,9.70994853973389,0.0054788547315928185,-0.005590841175579239,-0.001961220356318962
3.808333333333333,0.04702278971672,0.08375263959169,9.59443759918213,0.00278402074989308,-0.0022652161635995493,0.003289190419539012
3.816666666666667,0.05285951122642,0.05466917902231,9.59339332580566,0.002919030793666788,-0.000610227018404677,-0.0012825943755531014
3.825,0.16900742053986,-0.05663621425629,9.64384078979492,0.005868907962748479,-0.001035821161601075,0.0004944403358690943
3.8333333333333335,0.06352439522743,-0.13249211013317,9.75599098205566,0.0028837132204527264,0.00037172433054055904,-0.00475798227744095
3.841666666666667,0.0426881685853,-0.02112234570086,9.73837375640869,0.005068460047165652,-0.0007219900585458427,0.0026655519533509164
3.85,-0.06911811232567,0.02179476246238,9.77587795257568,0.004496456737503255,-0.001144455117498626,0.0011842428482141054
3.8583333333333334,0.00588678987697,0.05192964151502,9.77677059173584,0.0036065976095844433,-0.00047521697463096836,0.00011690427880225664
3.8666666666666667,0.04955489560962,0.09757908433676,9.75162792205811,0.005046107699211688,-0.0027829034705919857,0.0026364935889216508
3.875,-0.06282369792461,-0.04401842132211,9.8070125579834,0.004850298780063666,-0.0031329455671867384,0.006361336851277134
3.8833333333333333,-0.15892186760902,-0.14287804067135,9.88133811950684,0.002382567420766315,-0.0014828738423143463,0.004109085132714594
3.8916666666666666,0.09903832525015,-0.08677830547094,9.86284923553467,0.004234259945732234,-0.00013724518754308098,-0.0004032415351681299
3.9,0.18178950250149,-0.15648274123669,9.82981586456299,0.004930991520795719,-0.006488970406965127,-0.008843598563123575
3.908333333333333,0.025993430987,-0.07962545007467,9.71077823638916,0.0047050061776944254,-0.005880084396799852,-0.004045379926756159
3.9166666666666665,-0.22307571768761,0.00497122574598,9.69430541992188,0.005362174466185076,-0.0051710593684582045,-0.0025674240899314776
3.925,-0.01768914610147,0.04260943457484,9.73867321014404,0.004201178491566361,0.0011692664681972479,-0.0011077967311010656
3.933333333333333,0.1748870164156,-0.02941964380443,9.73112106323242,0.0037796076331622986,-0.0010756088923167288,9.58928171778429e-05
3.941666666666667,-0.11280032992363,-0.03271710500121,9.59440135955811,0.0002867843160035582,-0.0010206215077761163,-0.0013889927325512474
3.95,-0.18275514245033,0.01781773194671,9.51438999176025,0.003386201003657357,0.006187432952243613,-0.0001466332855157629
3.9583333333333335,0.01667337492108,-0.00570060359314,9.6062479019165,0.004742558829659108,0.01068120780330539,-0.004530879134889781
3.966666666666667,0.16439391672611,0.00528613431379,9.7595329284668,0.005178435076321006,0.009138428180849483,-0.0023349563942744395
3.975,-0.03384725376964,-0.00150209700223,9.87183856964111,0.004076003158400112,0.0028890780336330735,-0.007054492144294866
3.9833333333333334,-0.01614396646619,0.04114315286279,9.80835056304932,0.004898133210400969,0.007616660483275324,-0.0005968153105469535
3.9916666666666667,-0.01350456755608,0.10328704863787,9.78831481933594,0.0033839654047579525,0.004835098476052772,-0.006909646869764915
4.0,0.07197906076908,0.12930193543434,9.77280044555664,0.0022343695281101684,0.006965081712181969,-0.00576474507461276
4.008333333333334,-0.01962728239596,0.06939697265625,9.8717098236084,0.003454600031037117,0.0026557169826689772,0.0009327754877478737
4.016666666666667,-0.0190337151289,-0.07197190821171,9.85000801086426,0.0035343988963135032,0.006524734267721086,0.007545802713225036
4.025,-0.06001920253038,-0.06287322193384,9.78021049499512,0.0038256535323651815,0.0032744374433675825,0.002210899380706502
4.033333333333333,0.00582956708968,-0.11124101281166,9.72835254669189,0.0044555517274866814,0.0032757791668113216,0.0021532297196131304
4.041666666666667,0.19564455747604,-0.02666579931974,9.8173131942749,0.005090812915268224,0.0007096962151563977,0.0006144739671167447
4.05,0.06349578499794,0.04946906119585,9.93261623382568,0.003932499347239595,-0.0030672286863229347,0.004932109320245421
4.058333333333334,0.01561465580016,0.11483173817396,9.84477233886719,0.005140882424356323,-0.005560888415545698,0.004393857416210528
4.066666666666666,0.01808238774538,0.07396754622459,9.80928707122803,0.004845380774574001,-0.003832136405069535,-0.0008373297708443915
4.075,0.11548256129026,0.05747330188751,9.77479457855225,0.0032281678802449673,-0.009041193672737102,-0.002623305479964909
4.083333333333333,-0.10722827166319,0.02919075265527,9.65322685241699,0.005059296068242735,-0.008498473171646617,-0.0010009511763009564
4.091666666666667,-0.29274439811707,-0.07039112597704,9.6545352935791,0.004806487699537275,-0.0003446776735260372,-0.0010586209674314803
4.1,0.09334459900856,0.02163735032082,9.7703685760498,0.005170835184389864,0.0013842987810927705,-0.004345799321953668
4.108333333333333,0.21408459544182,-0.00522872805595,9.68665218353271,0.0051205425315308155,0.00033081902794030615,0.00010505738939524517
4.116666666666666,-0.15008810162544,-0.08536917716265,9.57048988342285,0.006187433992541004,-0.0013304290659647087,0.0038180541605826474
4.125,-0.00169522373471,-0.05050622299314,9.65354156494141,0.0035652457918771887,0.005677122913559978,0.006125070249951829
4.133333333333334,0.21753226220608,-0.00132327596657,9.7818489074707,0.0034483416024754087,0.003473823424784444,-0.0038875709874121103
4.141666666666667,-0.07769417762756,0.00279676169157,9.71994781494141,0.0040590158837009735,-0.0017055063072151416,-0.010080593196978713
4.15,-0.11056865006685,-0.00799687858671,9.65803337097168,0.003297684186925821,0.004937921461265057,-0.007569943852387724
4.158333333333333,0.1622336357832,-0.0398985594511,9.75742149353027,0.004046273802211825,0.004749040922140374,-0.002904054413649931
4.166666666666667,0.16369996964931,-0.03328217938542,9.7847318649292,0.004428503997665567,-0.0004998049214843371,-0.009869137166129117
4.175,-0.12798558175564,0.04397553950548,9.71704387664795,0.003719702633243651,-0.002158370868873745,-0.007641473134345642
4.183333333333334,0.05140002071857,0.13093268871307,9.89013671875,0.004284330235043246,0.0011849133198245183,-0.004055662225277388
4.191666666666666,0.19048735499382,0.1346522718668,9.91364002227783,0.004532444262178946,-0.0017604938217929062,0.00800425653220663
4.2,-0.27391782402992,0.00765329925343,9.78795623779297,0.004391622857608515,-0.003536187167373619,0.003937416832580652
4.208333333333333,0.00866209249943,-0.02153005637228,9.84697532653809,0.003229732487385351,0.0013118761438277947,0.0010360445654465026
4.216666666666667,0.03648665174842,-0.11001788079739,9.81283473968506,0.004932556127936103,-0.003614421165435143,0.0003332778031202098
4.225,-0.17163246870041,-0.16190460324287,9.82201957702637,0.0037867596771053685,-0.0028173261280528142,0.0023262389629678986
4.233333333333333,0.07395324110985,-0.16828493773937,9.79250621795654,0.0031005343245569736,-0.004047168457890579,-0.001518638093181762
4.241666666666666,-0.0780732780695,-0.11487466096878,9.76192092895508,0.004783241216053341,-0.004138814228828577,-0.008214594763606349
4.25,0.11260720342398,-0.0885307341814,9.79566097259521,0.00547214949534043,-0.004470079999441163,-0.007523897172961927
4.258333333333334,0.1231075823307,0.03491302579641,9.73895359039307,0.006053316783925569,-0.00629897258853935,-0.0035205403157463487
4.266666666666667,-0.10918814688921,0.05208700150251,9.66927051544189,0.004688018642920807,-0.008095231051311302,-0.0008033536609997646
4.275,0.07122801244259,0.01233150158077,9.69941234588623,0.004303553108641964,-0.004987320498742744,-0.003452141028292284
4.283333333333333,-0.11151997745037,0.01083655748516,9.6760082244873,0.005593300438398374,-0.004717300931343936,-0.0008815880491729201
4.291666666666667,-0.05492668226361,0.08956074714661,9.64613819122314,0.004353623397952976,-0.00021905585776216274,0.0037183611698742174
4.3,0.22575087845325,0.03101472742856,9.70225238800049,0.004665219487276163,0.000308242853520432,0.002508189561623244
4.308333333333334,-0.0602770075202,0.05429723113775,9.60689735412598,0.0046115723957706155,-0.0023926260553678107,-0.002174017330389384
4.316666666666666,-0.13664762675762,0.03742400184274,9.72296047210693,0.004415986620393543,0.004707912248204243,-0.003821853586399523
4.325,0.02770298533142,0.06592777371407,9.77309989929199,0.004852086530974999,0.003766195080062911,0.0002255380802805805
4.333333333333333,-0.05651461333036,-0.01176642626524,9.6894416809082,0.004778322690415067,0.0008867290033778059,0.0029007015354494316
4.341666666666667,-0.04916149005294,-0.00169522373471,9.76792240142822,0.0030133589711948726,0.006375195171769984,0.0009613868494307302
4.35,-0.07124947011471,-0.0533816665411,9.81344318389893,0.0037666426679765054,0.003131380960046355,6.370501090270689e-05
4.358333333333333,-0.0436967164278,-0.10797216743231,9.80951595306396,0.004219060421944428,0.005717134828343798,0.002686563358084054
4.366666666666666,0.03330363705754,-0.16448678076267,9.91547107696533,0.00480559356400713,0.002648564418577299,0.007910822750282822
4.375,0.0068023535423,-0.05567057803273,9.93248748779297,0.004968767836680134,0.0038287830067202525,0.0025135541147291115
4.383333333333334,-0.09697083383799,0.04385408759117,9.77402400970459,0.005433702187696994,9.097522618170913e-05,-0.002667563628256285
4.391666666666667,0.02399778738618,0.02091491222382,9.76351642608643,0.004358093295380265,0.004797546344236698,-0.005397714663021302
4.4,0.10547582060099,0.11998178809881,9.80076122283936,0.004712606589774002,0.0019247855038039814,-0.002379661870405105
4.408333333333333,-0.01687355712056,0.04692980274558,9.82146167755127,0.004198942892666956,0.00022911452487285995,-0.006646333058767104
4.416666666666667,0.21599440276623,-0.01846148818731,9.77904510498047,0.003006205886954586,-0.0018937152043950428,-0.004811181520958425
4.425,0.11177043616772,-0.02085075899959,9.77380180358887,0.0032203440643199634,-0.006259185377972478,-0.004002463241834217
4.433333333333334,-0.10951744765043,0.01650903373957,9.77491760253906,0.0026454344240734447,-0.002860690400888525,0.005304951352707906
4.441666666666666,0.18918554484844,0.00237474380992,9.72168636322021,0.006019789042217798,-0.0028097267562704554,0.0022100055052508357
4.45,-0.2114809602499,-0.05432584136724,9.60868549346924,0.006593356438871969,-0.0045599377593933494,-0.0020273840448736214
4.458333333333333,-0.12924471497536,0.02072178572416,9.57152652740479,0.0056585697313485854,0.001381616504539837,-0.0025160128573996398
4.466666666666667,-0.10541848093271,0.0377958342433,9.69372463226318,0.00415379034877113,0.008440132258719747,0.0029029368742745326
4.475,0.19836980104446,-0.02431966550648,9.7463493347168,0.0022743809227453796,0.004887404624337669,0.0010977380964995692
4.483333333333333,0.03129368647933,0.00035764215863,9.80452346801758,0.001755799610260125,0.004074661955105157,-0.005328422020260181
4.491666666666666,0.08761517703533,0.0255284961313,9.83299160003662,0.005176647325409499,-0.0003795477563541069,-0.0034615291912835425
4.5,-0.05074942111969,-0.11205643415451,9.7805757522583,0.004240071566603086,-0.0019160682025347675,-0.0008055889998248654
4.508333333333334,-0.06516265869141,-0.11049013584852,9.824538230896,0.004656277611826977,0.002727692032020185,0.001614530877850404
4.516666666666667,-0.00402705045417,0.03331794217229,9.82927989959717,0.005546359623442434,0.000640850054992902,-0.0022754984621207778
4.525,0.21402736008167,0.002160158474,9.82803440093994,0.004156249091441659,-0.003389553881857856,-0.003644820733159539
4.533333333333333,-0.0675586014986,-0.00927008409053,9.86183166503906,0.005481313474263173,-0.005912272755732797,-0.002320203418102835
4.541666666666667,0.04776668548584,0.05197970941663,9.78836536407471,0.004286118246029057,-0.007105009501370864,0.0004459351413376989
4.55,0.0086336042732,-0.09454645216465,9.60416603088379,0.006146751606146771,-0.00814261867395775,-0.002344344557265523
4.558333333333334,-0.16221933066845,-0.21052247285843,9.54572677612305,0.004177037092329369,-0.0022155934622021312,-0.007354017664036535
4.566666666666666,-0.12929503619671,-0.18735446035862,9.50651550292969,0.005164129427988866,0.0012832648471635141,-0.010812863668506903
4.575,-0.15886464715004,-0.11527521908283,9.64180374145508,0.0031094751597087675,0.009562235938524647,-0.005957424779480014
4.583333333333333,0.21580842137337,-0.078767105937,9.78840065002441,0.00430221164527253,0.011371009177825233,-0.009591516146353339
4.591666666666667,0.12964506447315,0.08138474822044,9.82036018371582,0.004146637524604973,0.006352396016125339,-0.010287576989732108
4.6,0.13464511930943,0.08233637362719,9.83864974975586,0.0038788527758826566,0.0010347034921885244,-0.00992054657814065
4.608333333333333,-0.03884708881378,-0.01953441463411,9.77060508728027,0.0038413006440665815,-0.002954571510651624,-0.0031924034993403997
4.616666666666666,-0.04582088068128,-0.0028896050062,9.88736057281494,0.0021679820455987996,0.0013288641987500207,-0.0014819798368213536
4.625,0.07472574710846,0.05028448626399,9.97531223297119,0.005676899249640245,-0.004233142406356836,-0.0030310177578018157
4.633333333333334,-0.0542398430407,-0.06758030503988,9.90952682495117,0.005689640290832003,-0.008519036728391856,-0.00634233686137506
4.641666666666667,-0.15868581831455,0.00482816901058,9.77011108398438,0.005889248895871203,-0.008215935186678567,-0.005288633769395918
4.65,-0.10348026454449,0.05841731280088,9.757399559021,0.006249573030913055,-0.0036810316616804834,-0.0007228841940758132
4.658333333333333,0.17517338693142,0.06139256432652,9.77330112457275,0.004504727101044636,-0.0053150099873094025,-0.006132670141882971
4.666666666666667,0.12247097492218,0.07099911570549,9.78777122497559,0.002672034045832182,-0.005563570822135783,-0.008816774497222192
4.675,0.11515361815691,0.11112656444311,9.71693706512451,0.004008274602630766,-0.008867737621691654,-0.0006978491794574592
4.683333333333334,0.07979711890221,0.01597945205867,9.6594705581665,0.0068989172434043965,-0.0077250709052902955,0.004060579970692575
4.691666666666666,0.19287641346455,-0.08293005824089,9.67513561248779,0.006273937833995301,-0.010318423885295793,-0.0006777319752730424
4.7,-0.0206073410809,-0.07290893048048,9.67711734771729,0.004137249361613889,-0.012138822446933041,0.00238569689512156
4.708333333333333,-0.24600772559643,-0.17342068254948,9.66793251037598,0.006691708746433878,-0.00551618371963777,0.0044551033593500005
4.716666666666667,-0.02773188985884,-0.12205597013235,9.77945995330811,0.0041028267041528866,-0.001893268396704362,0.004316071006062598
4.725,-0.03748853877187,-0.00546481274068,9.80885791778564,0.0049991674044045295,0.0004177707498920507,-0.005535853661001649
4.733333333333333,-0.22869785130024,0.04771661385894,9.66475009918213,0.004254376954860922,0.0007123784917093314,-0.00482369889823045
4.741666666666666,-0.06564164161682,0.03720193728805,9.69036388397217,0.0031139458373591437,0.007543343970554682,-0.005071813445514759
4.75,0.13769198954105,-0.01589389704168,9.81248569488525,0.003851582682513506,0.004275835687433525,0.0035905036901921874
4.758333333333334,0.12285007536411,-0.03353252634406,9.8277416229248,0.002831855440304687,-0.00010729264694716935,-0.00017390350892206534
4.766666666666667,-0.29785153269768,-0.13118313252926,9.72362518310547,0.003516293041941575,0.00048438166875822266,-0.0008990230418229792
4.775,0.18289104104042,-0.03360405564308,9.67739582061768,0.004055438561357655,0.00969992656836831,-0.000928975671819542
4.783333333333333,0.06609206646681,0.04321728274226,9.63129615783691,0.004800676078666248,0.004627219507472016,0.00942186030134768
4.791666666666667,-0.06086353957653,0.03686575219035,9.50353145599365,0.005629511626993624,0.004262871502470819,0.007824539972004689
4.8,-0.23767466843128,-0.11886594444513,9.52893829345703,0.0032824846631380146,0.011248963579088533,0.003138980591903193
4.808333333333334,0.09649901092052,-0.04107864573598,9.76399707794189,-0.0005230517300611517,0.017515527265667033,-0.0033081904094410864
4.816666666666666,0.05420423671603,0.0347272194922,9.73788833618164,-0.00122313618332531,0.0132848420415349,-0.002840126063920372
4.825,0.05613551288843,0.14469486474991,9.80038928985596,0.0010628677210878198,0.013883445753178944,-0.0035093638816951493
4.833333333333333,0.07915335893631,0.13725590705872,9.96363830566406,0.0030285584949826787,0.008988218613287795,-0.00043006475582802313
4.841666666666667,0.20246133208275,-0.05350313708186,9.97861480712891,0.005848120221935074,0.005160105558029346,0.0011723958125153414
4.85,-0.21537925302982,-0.07340962439775,9.94873905181885,0.004689359586141459,0.0021661939045758364,0.005713110438235669
4.858333333333333,0.02160873822868,0.04491269960999,9.91718769073486,0.004186425515394931,-0.0004944403683782952,0.009475507392853228
4.866666666666666,0.20993621647358,0.08172812312841,9.86997890472412,0.003708525939117974,-0.0031074634848033992,0.009030688750593534
4.875,0.02016386389732,0.01154468860477,9.82667541503906,0.004470303663360721,-0.008859689881772439,0.006974246211253495
4.883333333333334,-0.12570396065712,-0.01012152805924,9.68285465240479,0.004973684281723799,-0.013179560833800693,0.00875932615937929
4.891666666666667,0.00525733968243,-0.24479174613953,9.75237941741943,0.008298864566607417,-0.005528254289219115,0.01241264326066903
4.9,0.25155118107796,-0.29261565208435,9.84695434570312,0.0049267450272138585,-0.008956255478720407,0.004429622317263879
4.908333333333333,0.14536006748676,-0.19720387458801,9.80381488800049,0.0054082201053136545,-0.011151729070976151,-0.007783634441839508
4.916666666666667,-0.12193451076746,-0.10543290525675,9.67866230010986,0.006927752724136844,-0.012428512995992768,-0.009253097031425989
4.925,0.0325524918735,-0.04830301553011,9.69672966003418,0.007270417812497446,-0.010324681273560284,-0.0029912297670120318
4.933333333333334,-0.08564084768295,-0.05469798669219,9.67521476745605,0.007295229943418982,-0.009662598620620402,-0.004489750460953475
4.941666666666666,-0.33406662940979,-0.03625752031803,9.65687465667725,0.005760498060882291,-0.0058242027466921175,-0.009328202335355527
4.95,-0.00198133755475,-0.04489839449525,9.70225238800049,0.003660691508780671,-0.0008266005996139061,-0.004140155432123707
4.958333333333333,-0.05281620845199,-0.09194942563772,9.72220134735107,0.0018210692933217914,0.0017893285223024398,-0.002979159717579297
4.966666666666667,-0.09456058591604,0.0499196909368,9.5803394317627,0.00134138183609635,0.007929150187979872,-0.0036488446031190595
4.975,0.01663751341403,0.0669649168849,9.68398380279541,0.004902156560211881,0.010963297940285542,-0.007965585560643461
4.983333333333333,0.26878237724304,0.0501771941781,9.77745723724365,0.0021375824778744035,0.0071946435974034936,-0.010362234965822184
4.991666666666666,0.1725619584322,0.09609819203615,9.73954677581787,0.0034478945347104235,0.002322662680921972,-0.0057642987870706874
5.0,-0.42893454432487,-0.08396722376347,9.67871952056885,0.005093494801709701,0.008225546493440773,0.0014929326069529952
5.008333333333334,0.09402413666248,-0.03364662453532,9.80253505706787,0.00028007852709335986,0.014536589131412859,-0.010708253452531895
5.016666666666667,0.1743004322052,0.10128400474787,9.82003879547119,0.0013588168287465836,0.010387940712125255,-0.005520207069448682
5.025,-0.26717299222946,-0.00145202712156,9.7984504699707,0.0036320799520420865,0.007772681671707866,-0.0014453213203868157
5.033333333333333,-0.00206001871265,-0.00720291305333,9.89163780212402,0.004242306645353883,0.01401800820903906,0.002401790814513641
5.041666666666667,0.28321680426598,-0.09367363154888,9.97463226318359,0.004289247720384129,0.008917138219615341,0.0019408796832705417
5.05,0.2339766472578,0.00544331362471,9.86711120605469,0.003037499590208952,-0.0015181910254167767,-0.0007792128469301319
5.058333333333334,-0.02843970432878,0.10120557248592,9.87720394134521,0.005918754848214238,-0.007007998657178215,-0.0011507136760974862
5.066666666666666,0.03095012530684,0.05800259113312,9.81624031066895,0.006431523109419616,-0.00526359849470326,0.003942781645760824
5.075,-0.32535421848297,0.00151640269905,9.77648448944092,0.004623195637512496,-0.004031968413954164,0.0026932691144850515
5.083333333333333,0.0358715057373,-0.02348993718624,9.76027584075928,0.003278684717172531,-0.004620290087151286,0.00024409079110716567
5.091666666666667,0.10829403996468,-0.12327209115028,9.71028423309326,0.005120095203691352,-0.0075136148744407,-0.00036926555536082983
5.1,-0.32599797844887,-0.23170204460621,9.78416633605957,0.005955412324351559,-0.008029960197915091,0.00467460608982142
5.108333333333333,0.19539399445057,-0.07172126322985,9.78360176086426,0.006732837940518792,-0.008613813013982318,0.007287182723648549
5.116666666666666,0.19111680984497,-0.13000291585922,9.83498001098633,0.007912610501194153,-0.011841085198251316,0.002130429783745573
5.125,-0.07585589587688,-0.08821601420641,9.69489192962646,0.006414535574646174,-0.010685901624726539,-0.003866558542381755
5.133333333333334,0.1543583124876,0.06547005474567,9.56667137145996,0.006583969316178103,-0.00860263501948512,0.0009627279877072845
5.141666666666667,-0.04253080487251,0.04896121099591,9.5932788848877,0.0053344562647535485,-0.009393471628305738,0.007101208775182466
5.15,-0.22047208249569,-0.0499196909368,9.62074565887451,0.005992965496465024,-0.0038831000496876043,-0.0007443427315926869
5.158333333333333,0.17164677381516,0.00123028899543,9.73915386199951,0.003199109255741398,-3.5764217342258533e-06,-0.004353399473959114
5.166666666666667,0.22843305766582,0.04698722809553,9.88409900665283,0.00410841492117866,-0.005999894916785579,-0.0037691019307956423
5.175,-0.2850336432457,-0.05519849061966,9.83181190490723,0.004748817258220817,-0.0068340942379960835,0.0027679268305008243
5.183333333333334,-0.01172350998968,-0.01756738312542,9.90143775939941,0.0070321397963409036,-0.003505340531884237,0.008061255461615284
5.191666666666666,0.04776641353965,-0.09863041341305,9.913161277771,0.006369831919035638,-0.0034499064696900967,0.004627219507472016
5.2,-0.1338367909193,-0.07371723651886,9.74788665771484,0.007139656082825904,-0.0039675929964596195,0.0008290592772656838
5.208333333333333,0.01987742818892,-0.00765345990658,9.75634860992432,0.006364466065558075,-0.0016299541955950947,0.005655887844907107
5.216666666666667,0.04923301935196,-0.01387651544064,9.71253776550293,0.005597771636197186,-0.0036828207129636866,0.004517691806156125
5.225,-0.05811676755548,-0.09323020279408,9.64950084686279,0.00515876461480852,-0.0027449034907878387,-0.0009338931571604242
5.233333333333333,-0.07584159076214,-0.12185583263636,9.71647167205811,0.0023874849061071967,0.0028524197772726648,-0.004458009950008428
5.241666666666666,0.03587134554982,-0.16799183189869,9.67744541168213,0.00447388020548095,0.004388939930869646,-0.001967926112720134
5.25,0.04822415113449,-0.16693325340748,9.64075756072998,0.0038784057081176714,0.0028653844823841534,-0.0022567221361384365
5.258333333333334,-0.2282257527113,-0.19898493587971,9.66264724731445,0.0037782656496442553,0.004282094115995233,-0.009920545537843432
5.266666666666667,-0.22270372509956,0.01028607413173,9.66479301452637,0.002918583725901628,0.012427395716691849,-0.010341670368779728
5.275,0.12778553366661,0.0706843957305,9.79939460754395,0.0030920400370215563,0.013121667248713286,-0.006547533943514339
5.283333333333333,0.22743894159794,0.07202912867069,9.81015968322754,0.0004571114128425449,0.00762247262429496,-0.0011297022713643483
5.291666666666667,-0.01426992192864,-0.00975647754967,9.82621765136719,0.0032147561073686682,0.004040015373650117,-0.0037346782330374213
5.3,0.09722882509232,-0.01049294322729,9.88099479675293,0.0031854740790196704,0.003951722220838313,-0.003904558522185727
5.308333333333334,0.22500698268414,-0.02702344022691,9.78970241546631,0.002841690931135234,0.003638785968517563,-0.005415596853473673
5.316666666666666,-0.02032122761011,-0.07633513957262,9.78635501861572,0.006300314572057393,-0.0015284733239380051,-0.0003817830626700068
5.325,0.04538478702307,-0.01926260627806,9.81913661956787,0.007426216377307475,-0.004394975215660405,-0.0008784586398362503
5.333333333333333,-0.1042812988162,-0.02604350075126,9.85083103179932,0.005916519249314833,-0.008352734281735304,-0.00784935158277779
5.341666666666667,-0.06346717476845,0.01741717197001,9.92076396942139,0.004699194556823398,-0.005123670705514365,-0.011279139482893195
5.35,0.26043480634689,0.08828785270452,9.87373352050781,0.004316964621444134,-0.008100148536652186,-0.00441822169914434
5.358333333333333,-0.01316838432103,-0.00773937627673,9.74014759063721,0.006742672911200731,-0.013359723681544531,-0.00295859512053684
5.366666666666666,-0.11069024354219,-0.07936794310808,9.63289833068848,0.006823141988013226,-0.012230021150106055,-0.0038643237237052626
5.375,-0.23922671377659,-0.17632494866848,9.54308128356934,0.005290645184227157,-0.007873938489333767,-0.00313607478146768
5.383333333333334,-0.06492610275745,-0.13192692399025,9.55768013000488,0.004708582719814482,0.002595811722676026,-0.0015105912635227864
5.391666666666667,-0.01384075079113,-0.10647007077932,9.63731861114502,0.005035377552702561,0.0077252940490612435,0.0005483101485249333
5.4,-0.06087784469128,0.00015020970022,9.69976997375488,0.002473319316248647,0.009758490104917524,-0.005549712501642933
5.408333333333333,0.05655037611723,0.12611892819405,9.76117038726807,0.003968487131989591,0.007624931366965488,-0.006802801054890327
5.416666666666667,-0.10850862413645,0.04267385974526,9.65262603759766,0.0020356544084151767,0.010574360948133583,-0.009626384831281937
5.425,-0.16387876868248,0.00364069151692,9.6980447769165,0.0002731492693189831,0.0170367345941575,-0.002781115459606175
5.433333333333334,0.13523165881634,-0.00095128820976,9.76171493530273,0.0006605203214496603,0.013668412139911901,-0.0006634262619223261
5.441666666666666,-0.16616770625114,-0.21482111513615,9.8447151184082,-3.84465355478239e-05,0.015487916045870397,-0.006274385161834764
5.45,0.13737750053406,-0.06000519916415,9.96164321899414,0.000869741078492732,0.017428575056076055,-0.005106236363050067
5.458333333333333,0.31898102164268,-0.03192313760519,10.04103183746338,0.004924509428314279,0.006622415583524148,0.0012555475559922265
5.466666666666667,-0.10073348879814,-0.06820235401392,9.97697162628174,0.004663430696067439,0.0013230525778789937,0.0060680702802457815
5.475,-0.0501488186419,-0.03076438978314,9.8162317276001,0.004603972503839473,0.00033640717994750405,-0.0014404038350457587
5.483333333333333,0.16176164150238,0.02108647674322,9.77201461791992,0.0056585697313485854,-0.0060226940724302245,-0.002047948511878926
5.491666666666666,0.0322307087481,0.0182469021529,9.75949668884277,0.005677793385170391,-0.011229963589186459,-0.0037047257330781853
5.5,-0.1041811555624,-0.01865461468697,9.61075973510742,0.005545018160073,-0.01226265631672968,0.0028671724933699645
5.508333333333334,0.00172383512836,-0.05089247599244,9.75463199615479,0.0055501598294823975,-0.007823422692703596,-0.0035621157973733343
5.516666666666667,0.17658938467503,-0.07134245336056,9.79899406433105,0.0059855887483048304,-0.00982308944640593,-0.005130824309903261
5.525,-0.05307409539819,-0.14154045283794,9.66261863708496,0.0077644128686123115,-0.011105907095767307,-0.005282152197063262
5.533333333333333,-0.03297460451722,-0.02982020191848,9.63860607147217,0.007214313538767197,-0.007576649608788721,0.0020405722838675155
5.541666666666667,-0.20114509761333,0.01599375717342,9.66120147705078,0.006638510023065013,-0.005958319435158768,0.004759547404729943
5.55,-0.04664332419634,0.00881231203675,9.71978282928467,0.006068741272004804,0.0001685388907974473,0.003394918434963898
5.558333333333334,0.20178885757923,0.07639951258898,9.69494915008545,0.0035185283807666755,-0.0005690980843940673,-0.0022263225684140404
5.566666666666666,0.02259583026171,0.05563481152058,9.71071434020996,0.005041637021561486,0.0012206774406547816,0.009816160026085199
5.575,-0.22620126605034,-0.19800478219986,9.78603363037109,0.002632022651196971,0.0023932967870525282,0.00871149276933938
5.583333333333333,0.00859053898603,-0.27040612697601,9.8045654296875,0.0022864512322524197,0.007756588272464393,-0.00039564167574636264
5.591666666666667,0.22057221829891,-0.24817503988743,9.96828746795654,0.001992290395653771,0.0013619461730645028,-0.004347587593013783
5.6,0.00952758640051,-0.20625223219395,9.95260143280029,0.004535797140379445,-0.005044319428151573,-0.004725123967046027
5.608333333333333,-0.27228012681007,-0.18317000567913,9.93223762512207,0.005620793935612953,-0.004191119336816081,-0.003682373125049918
5.616666666666666,-0.14170497655869,-0.02203075587749,9.78160572052002,0.005671087108620609,-0.0033846363965169737,-0.006615039355512738
5.625,0.02667295187712,-0.00533602107316,9.68358325958252,0.00662286239121483,-0.003999333507404667,-0.002742221344272057
5.633333333333334,0.09811554849148,0.00954904500395,9.60597515106201,0.004884050705839777,-0.0056920990335025306,-0.002567647233702427
5.641666666666667,-0.0803053304553,-0.03200886026025,9.70493412017822,0.0028399024000006403,-0.0008990230418229792,0.0035891627469715357
5.65,0.17153948545456,0.08584126830101,9.70941925048828,0.00375099581634941,-0.0006370501740459942,0.0003779830516859467
5.658333333333333,0.22296126186848,0.06532691419125,9.6788911819458,0.004329482258790464,-0.0033725655668613254,-0.003981004509261615
5.666666666666667,0.09198534488678,-0.0127317821607,9.66727352142334,0.006124622401963755,-0.008540495460964284,-0.0037494312092088513
5.675,-0.10689923912287,-0.02396917715669,9.64065933227539,0.006025152815100752,-0.004109755604325007,-0.0007076844102137024
5.683333333333334,0.01218129135668,0.02072893828154,9.67179489135742,0.006333172882452317,-0.0018579510835647797,0.0019127150642599643
5.691666666666666,0.09282243996859,0.03926195576787,9.69662952423096,0.002986535685516403,-0.00421794288256903,-0.004537138083600096
5.7,0.08039795607328,0.06283772736788,9.78928089141846,0.005679804800001455,-0.004527303112918332,-0.0032469436860787003
5.708333333333333,-0.04658656939864,-0.04047063738108,9.78592681884766,0.007140996505897946,-0.010043039504716638,0.003286955080713912
5.716666666666667,-0.16171862185001,-0.19480767846107,9.78438854217529,0.005179553395919317,-0.004097238227052982,0.009823536774245393
5.725,-0.14325714111328,-0.17828461527824,9.76913070678711,0.002290474582063331,0.0009461870655686197,0.004472091934420836
5.733333333333333,0.0116090644151,-0.1212764531374,9.68243885040283,0.004727805853487504,0.00014685680314356788,0.0056277228357848996
5.741666666666666,-0.10876613110304,-0.17792697250843,9.70309638977051,0.00465448986091547,0.0024880720323457724,0.000521039990137207
5.75,-0.29830914735794,-0.07558389008045,9.72743034362793,0.004617831344480932,0.005698357462064064,0.004041132913025515
5.758333333333334,-0.20915623009205,-0.03313180431724,9.80814170837402,0.001700811965645208,0.012279866995274422,0.003069240361228303
5.766666666666667,0.16417920589447,0.11418083310127,9.84412860870361,0.0011218787155134735,0.01293524597240774,-0.00017524467970782027
5.775,0.14220567047596,0.00738173397258,9.93413257598877,0.0013105350705698167,0.008534459656024916,0.00013165702740875742
5.783333333333333,0.03590729832649,-0.08051935583353,9.90453433990479,0.0006913670219576176,0.005375138651147781,-0.0019858081731351784
5.791666666666667,0.1137588173151,-0.02509217336774,9.89872646331787,0.0028162085886774164,0.004620513230922409,0.001773681670675344
5.8,-0.04008453339338,-0.09697109460831,9.81184101104736,0.003653091356775399,0.001601566432813394,-0.00240827342714369
5.808333333333334,0.02383327297866,-0.10322982817888,9.76797199249268,0.004093885869001093,-0.0018691276476531305,-0.004579161413215156
5.816666666666666,0.14199107885361,0.02640114352107,9.77043342590332,0.006568545868396261,-0.004739206471607218,-0.002412296516880297
5.825,-0.03328217938542,0.01941281557083,9.80405139923096,0.0058152619115401484,-0.007299477477298234,0.005017273258776459
5.833333333333333,-0.00543616060168,0.00824722833931,9.67797565460205,0.006388607204720588,-0.008674610588984935,0.0015787666269829886
5.841666666666667,-0.04118590429425,-0.0322524420917,9.61540222167969,0.005780168522394603,-0.009367990586219618,-0.006592687007558774
5.85,-0.15395779907703,-0.06343141198158,9.52519798278809,0.005391456234459594,-0.005407549633703241,-0.007493050277398241
5.858333333333333,-0.18206131458282,-0.14623987674713,9.56125545501709,0.002519366255748747,0.005455608768257494,-0.004251471664574192
5.866666666666666,0.09524010121822,-0.07270865142345,9.55062580108643,0.0003918417297808785,0.009063771245056624,-0.00045062915781475185
5.875,0.01658748835325,-0.09963178634644,9.78632068634033,0.002221628486918411,0.008813867906563591,-0.0020506307884320344
5.883333333333334,-0.00961342081428,-0.08072698861361,9.90480613708496,0.002158147334991165,0.009836278335585757,-0.0040431451080796665
5.891666666666667,0.02729524858296,0.00963487941772,9.90696620941162,0.0005585923820275857,0.010331612774475448,-1.6093900089786795e-05
5.9,0.09239327162504,0.03377572447062,10.00124835968018,0.0029834064712356365,0.0072187836962687895,0.0077069655710669755
5.908333333333333,-0.04818154871464,-0.1229001507163,9.89909076690674,0.003445659455959627,0.004886957296498379,0.00368527945563404
5.916666666666667,0.17982247471809,-0.07472574710846,9.85477924346924,0.00408539132139137,-0.0050749426597957005,0.001746411447268867
5.925,-0.13181258738041,-0.18977206945419,9.92552852630615,0.005983353669554034,-0.008185534578656953,-0.0013755812197490777
5.933333333333334,-0.1497593075037,-0.19710353016853,9.76462554931641,0.0053496555284670505,-0.006408052962016125,0.002112994661058187
5.941666666666666,0.07054848968983,-0.18560911715031,9.81875038146973,0.0074208526044245195,-0.0030734876350332514,-0.002241969680115615
5.95,0.3751308619976,-0.01168774534017,9.78066825866699,0.008578718064390771,-0.014957042970590131,-0.007665165905371648
5.958333333333333,0.05822414159775,-0.11150567233562,9.65673160552979,0.009524681205965354,-0.01528339151593614,-0.006944963922830193
5.966666666666667,-0.05497667938471,-0.04747359082103,9.50809669494629,0.007122891171674627,-0.014329156970522781,-0.0026955044533101525
5.975,-0.07991871237755,0.001752446522,9.49172210693359,0.00664901546535719,-0.009798054691861879,-0.0004881815822145059
5.983333333333333,0.11679162085056,0.0286399833858,9.56723499298096,0.006343454660824763,-0.006683438382892497,-0.005381173415789758
5.991666666666666,0.08315180242062,-0.00342621188611,9.68577861785889,0.0025564710597255325,-0.0037775951780338424,-0.003683267000505583
6.0,0.01270363107324,-0.05371798574924,9.77395343780518,0.0032411323252819774,-0.002262534017083768,-0.0007930715575342645
6.008333333333334,-0.04513430595398,-0.08479691296816,9.8815221786499,0.003974969484545335,0.0008049185282146269,0.0009233874547939423
6.016666666666667,0.05094254761934,-0.00849042460322,9.78319358825684,0.00546454856311207,4.269353302369277e-05,-0.0004381116830149502
6.025,-0.14645445346832,-0.07206489145756,9.73109912872314,0.005952730437910081,-0.0005082989164362494,-0.0009437282578795152
6.033333333333333,-0.40403547883034,-0.1251532882452,9.77775001525879,0.0035858101288453416,0.003233979761190299,-0.003871030000254869
6.041666666666667,-0.00252495356835,0.01899079792202,9.81169033050537,0.0027500446400484527,0.006264326527233093,0.0008241416618876493
6.05,-0.09649877250195,0.02956279926002,9.81521034240723,0.003373459702391296,0.0014520272068249654,0.0019715025248030382
6.058333333333334,-0.11214942485094,-0.08990408480167,9.80134773254395,0.005329315635641543,0.005593970389860005,0.001148031399544378
6.066666666666666,0.13129043579102,-0.13734889030457,9.78968143463135,0.0037872070049446583,0.004484162504002179,0.0002832079039206541
6.075,0.42766165733337,-0.16192609071732,9.74406147003174,0.005533395438479729,-0.0007202019825414556,0.00627237426715231
6.083333333333333,-0.1427850574255,-0.298030346632,9.64792633056641,0.006462817852971375,-0.003308637217131767,0.008437002004141585
6.091666666666667,0.05991221219301,-0.16403615474701,9.74327373504639,0.003118416515009345,0.005349656568764268,-0.005369550694196487
6.1,0.42449298501015,0.22725999355316,9.78098297119141,0.004034873964315198,-0.0017618347650135576,-0.00480939324989831
6.108333333333333,-0.08087696135044,-0.00390567281283,9.72853946685791,0.00838022673865249,-0.007978550265754775,-0.006130433502686173
6.116666666666666,-0.07209350168705,0.10702799260616,9.68593692779541,0.005705957353995207,-0.003985027859072527,-0.0031959797813863266
6.125,-0.00341875571758,0.02867540344596,9.67037963867188,0.005396150055880919,-0.006191234198580793,-0.006331161467621079
6.133333333333334,-0.30051955580711,-0.0942100957036,9.62445735931396,0.005303386745567523,-0.003437388572269463,-0.0028624789320229444
6.141666666666667,-0.43511462211609,-0.14754930138588,9.68730354309082,0.0008185535748992021,0.006904282576733177,-0.007399169167635143
6.15,0.15796338021755,0.09296549856663,9.8581485748291,0.0006759437042129269,0.01033898848233825,0.0033828476053082493
6.158333333333333,-0.09888103604317,-0.16713361442089,9.86853408813477,0.0031818975368994393,0.006765024739005912,0.004532890549720844
6.166666666666667,-0.12752801179886,-0.12281412631273,9.77900123596191,0.0008692939457091707,0.011972742103750222,0.0034943875016782916
6.175,0.07558409124613,0.02713788673282,9.87001514434814,0.001373569674880861,0.013845000526130118,0.0009694339391640102
6.183333333333334,0.22324025630951,0.00507847825065,9.9786319732666,0.0004919815281799899,0.012456005973058739,0.00033819535347966807
6.191666666666666,0.24951262772083,0.02567870542407,9.98331546783447,0.0030446526744492388,-0.0015329440015882066,0.0045744670716452215
6.2,-0.27327436208725,-0.10305815935135,9.8848352432251,0.005123447041594632,-0.000624085598971832,-0.0007962009018523579
6.208333333333333,0.18242610991001,-0.12283577024937,9.68488502502441,0.00288326667283635,0.00020676190058999152,-0.004815204870769338
6.216666666666667,0.00756070530042,-0.20219685137272,9.80001831054688,0.0054122444954217835,-0.009769443395197773,-0.006376313491368296
6.225,0.1516760289669,-0.10817244648933,9.57629776000977,0.007756141984922322,-0.00836837931284227,-0.0038875709874121103
6.233333333333333,-0.3136020898819,-0.21239651739597,9.62163925170898,0.007226830916039221,-0.010805711624563834,-0.0009794924437283546
6.241666666666666,0.07627076655626,-0.06680040061474,9.68674468994141,0.005492713052085495,-0.006070528502767528,0.001652083269740783
6.25,-0.0503345541656,-0.10458171367645,9.96519088745117,0.004466280313549983,-0.0024395663501751434,-0.005912719563423479
6.258333333333334,0.37394347786903,0.16209772229195,9.83681106567383,0.00427494155190338,-0.0036086092844898115,-0.0026277758975408057
6.266666666666667,-0.04513444006443,-0.04167246446013,9.86388492584229,0.0082970747351013,-0.01248618291716062,0.002227440367863743
6.275,-0.07149267196655,-0.07918193936348,9.78111839294434,0.0065419459865630435,-0.011229963589186459,-0.0005695451521592271
6.283333333333333,-0.15197645127773,-0.21260395646095,9.74612045288086,0.005939765732798767,-0.00649701710658695,-0.007412133352597848
6.291666666666667,0.13350781798363,-0.10292226076126,9.80716991424561,0.004911097915512284,-0.008244099155503382,-0.01172753466727312
6.3,-0.11253549158573,-0.16563156247139,9.79376602172852,0.005434596323226964,-0.009061311982237488,-0.00822085267201945
6.308333333333334,-0.22635836899281,-0.10860904306173,9.62154674530029,0.00618698666470154,-0.003124451539725625,-0.004672147867299501
6.316666666666666,-0.02534252218902,-0.05167929083109,9.56567573547363,0.006654156614617803,-0.001076055960081714,-0.011408785493709647
6.325,0.06416815519333,-0.02376174367964,9.54238605499268,0.004101484980709322,0.0026150348563490486,-0.004864380764476075
6.333333333333333,0.16666139662266,-0.0468580648303,9.5283317565918,0.00338038938278633,0.004657618555047803,-0.00261302318144368
6.341666666666667,0.10236458480358,-0.02052129432559,9.65028667449951,0.0023414387468300097,0.0020124079249312426,0.0029623948064281935
6.35,0.07725070416927,-0.05844587832689,9.76176357269287,0.0021532291994643474,0.00493881455649781,0.00041687664687128104
6.358333333333333,0.34493106603622,0.0709131732583,9.7707405090332,0.0028515259018169993,0.0006716967555008593,-0.004396316679029665
6.366666666666666,0.22522884607315,-0.038782838732,9.84675407409668,0.00755452040460588,-0.007735800011502204,-0.003727078601180758
6.375,-0.31087684631348,-0.23884773254395,9.80466651916504,0.007623366759825104,-0.009369777816982516,-0.000891423084873435
6.383333333333334,-0.42749661207199,-0.22357629239559,9.78433132171631,0.004849404124384913,0.002377649675351128,-0.002428837504037539
6.391666666666667,-0.13286405801773,0.01767467521131,9.87864875793457,0.002405814164324553,0.0036106212194696586,-0.006226103403657997
6.4,-0.12585446238518,0.03404014185071,9.9164867401123,0.00349036415186738,0.004333505348526896,-0.006098246184050447
6.408333333333333,-0.11667717993259,-0.06117833033204,9.76620483398438,0.002318415667191503,0.0058939432374411375,-0.0005749098353022467
6.416666666666667,-0.21098740398884,-0.19096660614014,9.83927154541016,0.0022830980939776164,0.00959956284597499,0.006078128914847279
6.425,0.1153896600008,-0.12386578321457,9.83396434783936,0.0005706628215717774,0.013150727953811467,0.0007177431748525256
6.433333333333334,0.43954935669899,-0.0377312451601,9.85180377960205,0.0005416044246331365,0.006637615887535042,-0.000186420983721867
6.441666666666666,0.08712878078222,-0.01844718120992,9.81532382965088,0.0033598247857438727,0.003954852475416472,0.0010347035572071007
6.45,0.13614006340504,-0.04428325220942,9.69710159301758,0.0073770404836009116,-0.003007770754169273,0.007058291830186046
6.458333333333333,0.02352537214756,-0.09901678562164,9.7618350982666,0.007592073576719347,-0.0005883214781415687,0.0048364404595708154
6.466666666666667,0.21762524545193,0.06831680238247,9.62112426757812,0.007163348853851735,-0.009616998228736679,-0.0032008972667272088
6.475,-0.29004779458046,0.02126540243626,9.69207382202148,0.0030560525123458655,-0.006965081192033186,-0.005679358512459384
6.483333333333333,-0.51035535335541,-0.04725167900324,9.71917533874512,0.005715793364974363,0.0012045836512996782,-0.0011766428262458104
6.491666666666666,0.07744409888983,-0.04568487778306,9.75237941741943,0.0038533709535736216,0.004522161443508935,0.008033314116412808
6.5,0.08181421458721,-0.11860129237175,9.89449214935303,0.005133730380413079,-0.0012048070551451057,0.004565973564332717
6.508333333333334,-0.06751556694508,-0.21241798996925,9.86191177368164,0.004230236595921323,0.0007472486720653526,-0.0007644602608701585
6.516666666666667,0.19815537333488,-0.03858254849911,9.8324613571167,0.004968319988692061,-0.003580892123355676,0.0016355424126206942
6.525,-0.11187762022018,-0.11602626740932,9.92795276641846,0.005003637561906122,-0.002295168663558786,0.0103106008495937
6.533333333333333,0.26554962992668,0.04773055389524,9.80145454406738,0.007201348313507275,-0.007430016063198828,0.010636054739260955
6.541666666666667,-0.04893250018358,-0.16093914210796,9.77016830444336,0.005026214093928252,-0.009598669230593628,0.0041575902947366145
6.55,-0.16573852300644,-0.20399908721447,9.52848815917969,0.006227221203107874,-0.0036439265976295687,0.0010919262155542377
6.558333333333334,-2.847435826e-05,-0.08952513337135,9.4539270401001,0.005572735841355919,-0.005956977451640725,-0.002896901849558252
6.566666666666666,0.07574162632227,-0.05256627872586,9.62086868286133,0.004121602509986619,-0.0007497073497171303,-0.0011936307511308845
6.575,0.10723542422056,-0.07036251574755,9.66547203063965,0.0045020446944545505,-0.003208050611041975,-0.002577259320687721
6.583333333333333,0.18647462129593,-0.04569236189127,9.79988098144531,0.0072813705826289135,-0.005627946499704632,-0.006940940573019282
6.591666666666667,0.16829924285412,-0.01077933423221,9.79126167297363,0.0054788547315928185,-0.0037628427220110215,-0.001909809253824451
6.6,-0.06891735643148,-0.08732211589813,9.75102615356445,0.004972567522571313,-0.0038643237237052626,0.0032156502428986383
6.608333333333333,-0.00357642141171,0.0060369996354,9.72333908081055,0.005357032796775678,-0.005366867247309008,0.006764354787544283
6.616666666666666,-0.4394134581089,-0.10414539277554,9.85001564025879,0.0038556057722501135,-0.0032715318930063735,0.0045217146358182535
6.625,-0.20166698098183,-0.053810544312,9.81066036224365,0.002599835072486938,0.002924842414537641,0.0055459122956031445
6.633333333333334,0.06009126082063,-0.09201400727034,9.75454711914062,0.0024612487466673027,0.00174194102969297,0.005083213023337082
6.641666666666667,-0.24991318583488,-0.27354615926743,9.72238731384277,0.0026087764277873404,0.008317639332143757,0.007643036701188807
6.65,0.02173033729196,-0.24476313591003,9.64344882965088,0.00023447914299747798,0.006592016015799752,0.003387989274717473
6.658333333333333,0.12030366808176,-0.18794095516205,9.85349178314209,-9.522223991235293e-05,0.012700992866508108,-0.00743448830129503
6.666666666666667,0.62314134836197,0.15736970305443,9.71742343902588,0.004320541423638495,0.003684832647943359,-0.008464943869492845
6.675,0.06625678390265,-0.03791006654501,9.80375099182129,0.004292600338510323,-0.003251414363728902,-0.009014370647132936
6.683333333333334,0.11965275555849,-0.09215007722378,9.66281127929688,0.007006657193808955,-0.0053279746924208915,0.0011243375882211543
6.691666666666666,-0.24364705383778,-0.11255016177893,9.81498050689697,0.003582904318409828,-0.0026326939030302966,-0.0036166567643347225
6.7,-0.19406378269196,-0.14556035399437,9.70437622070312,0.0049392618843371,-0.00033171313096107583,-0.007670977526242675
6.708333333333333,-0.38878563046455,-0.30531194806099,9.63803386688232,3.0176058223716583e-05,0.003608386140718863,-0.007054938951985547
6.716666666666667,-0.26786682009697,-0.1090093255043,9.70864677429199,-0.0008359885025306851,0.014275509879017236,-2.5034949599777847e-05
6.725,0.05034171044827,-0.12629774212837,9.89534282684326,9.701043782659207e-05,0.016220413302210145,-0.0016970121497168764
6.733333333333333,0.124287776649,-0.12256436049938,9.9719705581665,0.00025146716541050334,0.011847568331029974,-0.007247618136704194
6.741666666666666,0.33767849206924,0.06555535644293,9.95295906066895,0.0006046388013790775,0.00841554275142055,-0.011500878852561241
6.75,0.07512631267309,0.08210033178329,10.01161289215088,0.00461447794613165,0.0018271044480753984,-0.009887688787894509
6.758333333333334,0.43731051683426,0.24183762073517,9.78812217712402,0.006769719600724629,-0.011375927703463505,-0.005134624515943224
6.766666666666667,-0.21309758722782,-0.05318124592304,9.69523429870605,0.007012022006989127,-0.014080597696142403,-0.004479691826351979
6.775,-0.26459091901779,-0.11062555015087,9.67755222320557,0.006719873235407479,-0.013126363150729046,-0.005357033316924462
6.783333333333333,0.05901810899377,-0.09688525646925,9.79529666900635,0.007398946023864019,-0.010942508639026134,-0.0036269385427071675
6.791666666666667,-0.11642675846815,-0.22268953919411,9.8375186920166,0.006669803726319379,-0.01256128718079277,0.0014142512810520066
6.8,-0.22751048207283,-0.21865525841713,9.72228050231934,0.006571898226447976,-0.008620517209937315,0.005341609348993835
6.808333333333334,0.14550304412842,-0.05191527307034,9.80429553985596,0.008182182220605062,-0.005374915507376658,0.0012676179955364185
6.816666666666666,0.21123068034649,-0.13347212970257,9.93201541900635,0.00655401603599578,-0.006103610477082008,0.0009698808768918433
6.825,0.18188963830471,0.07160711288452,9.78458118438721,0.007398946023864019,-0.010665337027684083,-0.002630905111821572
6.833333333333333,-0.1898792386055,-0.05263078957796,9.72850131988525,0.006493664228386452,-0.010712277322491416,0.0037527840874095253
6.841666666666667,0.09515427052975,0.01992782019079,9.49557781219482,0.006159268463270012,-0.0064567820480320075,0.003409894814980581
6.85,-0.22909118235111,-0.11472456157207,9.49115085601807,0.005661252137938845,-0.005658793395268317,-0.0008976819035465994
6.858333333333333,-0.22676658630371,-0.15229117870331,9.41206169128418,0.003566810399017572,0.0011361846239199183,-0.002605870617351827
6.866666666666666,0.23311831057072,-0.10064765065908,9.62467193603516,0.0033162373691372144,0.006369608255115907,-0.001337581760093714
6.875,0.06723672151566,-0.1437721401453,9.85790538787842,0.0021208180868717346,0.007072820622289136,0.0040020161740690575
6.883333333333334,0.33611905574799,0.00307579291984,9.797926902771,0.007109703322792189,-0.0033162368489886057,-0.0014336979486076092
6.891666666666667,-0.22739630937576,-0.1703023314476,9.92964744567871,0.002957700985006869,0.00290360760595925,-0.0028115145071817877
6.9,0.12922325730324,0.01602236740291,9.82744121551514,0.004898580538240258,0.005485560487993817,0.0013100880028048315
6.908333333333333,-0.27685794234276,-0.07245114445686,9.8525333404541,0.004231130211302684,-0.0025106480442192935,0.007856280482949736
6.916666666666667,-0.34802132844925,-0.15373556315899,9.66368389129639,0.002395085058112644,0.005529372088668817,0.009641363031818924
6.925,-0.36029586195946,-0.21639496088028,9.78723526000977,-0.0014207336336077513,0.010681656171442072,0.0006998611144373066
6.933333333333334,0.07713625580072,-0.09456062316895,9.75884437561035,-0.0019093621860592908,0.01679644152212928,-0.0010550443602928478
6.941666666666666,-0.12681990861893,-0.13686965405941,9.84915733337402,-0.0009437282578795152,0.011144800690952816,-0.003373907030230585
6.95,0.55336529016495,0.06353918462992,9.80416488647461,0.0006135798966051758,0.012682215500228375,0.008554130117537402
6.958333333333333,0.43413493037224,0.02477024309337,9.95825099945068,0.004097908698663395,-0.0006898023497986581,0.001781281692643464
6.966666666666667,0.38558116555214,0.07004778832197,9.76778602600098,0.009281037336331247,-0.015197557625943296,-0.0006777319102544663
6.975,-0.5463485121727,-0.23021419346333,9.73878955841064,0.007993973193388008,-0.007963349961744057,0.0020955596684081278
6.983333333333333,-0.13508830964565,-0.05761647969484,9.7745532989502,0.0044711983190394745,-0.005740604455598856,0.006605875376589821
6.991666666666666,-0.1269196420908,-0.1339585930109,9.68972015380859,0.007673436268913029,-0.0033676480815202693,0.011359834304219859
7.0,-0.46044978499413,-0.28892463445663,9.67697429656982,0.003996874764734139,0.003049123092025136,0.0027062338195963658
7.008333333333334,0.06688623130322,-0.20496471226215,9.9486608505249,0.002690810631888828,0.005339150606323482,-0.002546635828969289
7.016666666666667,0.53082680702209,-0.08318041265011,10.04124641418457,0.005118530076402359,-0.0007197548497578942,-0.004057897824176792
7.025,0.15809935331345,-0.24416951835155,9.85108184814453,0.008910432463214168,-0.009614316342295202,-0.0018490099883385067
7.033333333333333,1.1532518863678,0.18304458260536,8.94139766693115,0.014067186183340406,-0.02989844195037069,0.016790183093567744
7.041666666666667,-1.20851707458496,-1.09075689315796,7.99425840377808,0.023288093295387276,-0.04468247099626822,0.032017246671853905
7.05,-1.26244008541107,-1.65484261512756,8.02393913269043,0.012712616108249988,-0.01718649683387972,0.039423123156336046
7.058333333333334,0.4977313876152,-1.52614736557007,8.23197364807129,0.008969442287305453,-0.009267403199906913,0.030165105518677172
7.066666666666666,-0.51006925106049,-1.91605353355408,8.21377372741699,0.004549879124791854,-0.000515451773111433,0.01287891803475793
7.075,-0.02123477868736,-1.54949259757996,8.51543521881104,-0.004260412499725986,0.02902288404952049,0.0010342564244235392
7.083333333333333,1.10464072227478,-0.88361781835556,9.23874664306641,-0.0009861983301665044,0.02494218889021936,-0.015485458863645869
7.091666666666667,0.95308125019073,-0.6556653380394,9.62762546539307,0.0037525609436384016,0.0224232712626816,-0.027433170374041256
7.1,0.55712884664536,-0.21503356099129,9.36509323120117,0.0010434211185507934,0.024005392848459522,-0.03473018806837175
7.108333333333333,-0.45633220672607,-0.00659050839022,9.64547157287598,-0.0006728144249134097,0.03003188712692971,-0.03631186440690499
7.116666666666666,-0.21759267151356,0.31645724177361,9.53038215637207,-0.00865896451758075,0.04507744275306216,-0.03226424029879668
7.125,-0.19471375644207,0.62285041809082,9.94266319274902,-0.00505661314150404,0.02834783721161808,-0.02696979906971878
7.133333333333334,-0.81410795450211,0.69496309757233,10.45237064361572,-0.004290364739610918,0.019929387349390495,-0.016378224322148804
7.141666666666667,-0.34209188818932,0.57343649864197,10.56444263458252,0.0014786268285837023,0.01323164331816586,-0.00394032290309047
7.15,-0.74951064586639,0.22099423408508,10.86026191711426,0.0035100343533055623,0.009058406431876453,0.004099696969723511
7.158333333333333,0.49969032406807,0.37563106417656,10.36758804321289,0.003514505030955764,0.009845664938130841,0.011667404442988742
7.166666666666667,0.49747321009636,0.07499009370804,10.14007663726807,0.013753800782659888,-0.01990234170016399,0.012849414163009507
7.175,-0.09760054200888,-0.50629967451096,9.53502559661865,0.01514055973683186,-0.017074285165527572,0.009554187158308214
7.183333333333334,0.14553889632225,-0.58224856853485,9.30323791503906,0.01064834793246464,-0.011985930992929876,0.0047883813250165636
7.191666666666666,0.1996573060751,-0.50173616409302,9.61870670318604,0.01074737071163696,-0.010426163315551743,-0.00136887546334808
7.2,-0.03886855021119,-0.5856032371521,9.52938938140869,0.00750422671144944,0.0032558847813047988,-0.00597329451480393
7.208333333333333,0.30757224559784,-0.19789770245552,9.68092918395996,0.006952117527219263,0.003685502599405163,-0.011305293597332951
7.216666666666667,-0.53026169538498,-0.25154402852058,9.92519950866699,0.008405485157116272,0.003986369062367657,-0.014976489248034278
7.225,0.42939946055412,0.18169651925564,9.49793815612793,0.007450356996321554,0.007577320080399134,-0.010042592176877347
7.233333333333333,-0.16854244470596,0.11402346938848,9.83568096160889,0.010416774632411877,-0.009133063367669137,-0.011925354481103597
7.241666666666666,-0.40885651111603,0.25871834158897,9.91075038909912,0.004566420372023399,0.0008192241765465927,-0.006891318391770471
7.25,-0.11982442438602,0.30570536851883,9.99425983428955,0.008512554635910417,-0.0034320234990148127,-0.0017694346569447
7.258333333333334,-0.56460249423981,-0.03693728148937,10.12347602844238,0.005259352521270008,0.002291815785358287,0.0043513877990535715
7.266666666666667,0.24104365706444,0.04765224084258,9.76621246337891,0.005239234211769623,0.006937587694818782,0.0061704454174699944
7.275,0.28418245911598,-0.05933998525143,9.98880958557129,0.011390680159486327,-0.011356481426019362,0.004434539282456153
7.283333333333333,0.1619331240654,-0.41409942507744,9.92728137969971,0.012594815962797932,-0.01819459797352914,0.0029197012652770267
7.291666666666667,0.15629677474499,-0.45651590824127,9.85585975646973,0.014645895249403799,-0.023580244147563705,-0.0018047519700842825
7.3,-0.18516564369202,-0.32492503523827,9.93731594085693,0.014722563079878941,-0.023115753483345526,-0.006822918844242103
7.308333333333334,-0.14767044782639,-0.3210124373436,9.60910034179688,0.01365410701172837,-0.009043429271636507,-0.006951669679231191
7.316666666666666,0.26092857122421,-0.06806645542383,9.62093830108643,0.012012083026775018,-0.013628401265425298,-0.009540550941289269
7.325,-0.00787528045475,0.05964755639434,9.77202796936035,0.012201858221578456,-0.011491491209718764,-0.010016663806951938
7.333333333333333,0.42820486426353,0.1818755120039,9.38418579101562,0.01436469872780501,-0.02022622994239347,-0.008142841817728872
7.341666666666667,-0.25468093156815,0.07256433367729,9.71561813354492,0.01598057171921061,-0.028166561245762365,-0.006484947577302998
7.35,-0.34641218185425,0.05941866710782,9.51308822631836,0.009444659456992148,-0.012524629184506843,-0.0016339776754431584
7.358333333333333,-0.1354962438345,0.10969595611095,9.46621417999268,0.008671258751081828,-0.005635993719475064,0.0007928480886704353
7.366666666666666,-0.8172122836113,-0.36075362563133,9.9127025604248,-0.00041486490694733633,0.021743079114329357,0.0037308785471462423
7.375,1.08343386650085,0.17814157903194,9.31606864929199,0.004253483079405256,0.007918868409607252,-9.83515964210476e-06
7.383333333333334,-0.02501349151134,-0.26321747899055,9.65079498291016,0.00878033912455843,0.0006860024038329996,-0.0006607439203508163
7.391666666666667,-0.18551613390446,-0.31296548247337,9.70672988891602,0.008750387924970713,0.00042134725950308084,-0.0022862278284069915
7.4,-0.68276745080948,-0.59727668762207,10.17368125915527,-0.0013324406108330994,0.024882059706232376,-0.004322775722166378
7.408333333333333,1.86428093910217,0.51554805040359,9.64738845825195,0.0010747146917680077,0.017878087519756895,-0.005804085477488951
7.416666666666667,-0.48282936215401,-0.1625050008297,10.03834533691406,0.02193240698129333,-0.0402772155626812,-0.010598725751215829
7.425,-1.78401207923889,-0.74275839328766,10.12160205841064,0.003708972746808655,0.018297643582363764,-0.002928642360503299
7.433333333333334,-0.10758607834578,-0.0723587423563,10.01858139038086,-0.00872289286731031,0.04304022854888158,-0.004570667385754042
7.441666666666666,2.73226451873779,1.11258900165558,9.64486503601074,0.00257100037197723,0.006506405269578034,-0.00011846896721599102
7.45,-2.86232423782349,-0.8765025138855,10.99821949005127,0.012421359911752482,-0.013344077610140349,-0.005762957323701253
7.458333333333333,0.62137722969055,0.0278727915138,10.69767189025879,-0.011652875650885654,0.04777362287946916,0.004398775421700193
7.466666666666667,1.20873737335205,0.37037420272827,11.4033899307251,-0.003148592418814009,0.022972695959727084,0.00038446533922294044
7.475,0.68655133247375,0.17756217718124,11.39681053161621,0.009914511813498674,-0.007549826063035947,0.0032154265789789064
7.483333333333333,7.57463121414185,2.35739159584045,7.39616346359253,0.06784808176805256,-0.1699860104017998,0.0006032977281210995
7.491666666666666,-7.94190692901611,-2.77450919151306,7.17745971679688,0.11151776508533126,-0.2730422053017848,-0.019360292710981136
7.5,-7.79104328155518,-3.09778475761414,5.9138331413269,-0.002355073663477432,0.0495312051691915,0.005173293927060392
7.508333333333334,2.64197039604187,0.58796268701553,7.61034870147705,-0.03273633137509444,0.07946474050870773,-0.006954798893511957
7.516666666666667,3.4702353477478,1.0259884595871,9.88512420654297,-0.02310547534601352,0.06963048139018288,-0.009905346794278541
7.525,-0.79725861549377,0.099619820714,10.52206420898438,-0.010498140445497559,0.049217830171484026,-0.011848687690925676
7.533333333333333,1.38629162311554,0.56248837709427,11.37458038330078,-0.03134197304913993,0.08938395030481697,0.0011983249626636658
7.541666666666667,3.99298167228699,1.80167949199677,11.29285144805908,0.0019359618078182027,0.019703178862518076,0.004018780304997422
7.55,-0.83868896961212,-0.52259194850922,10.14423084259033,0.027291900081185535,-0.03511823144514217,0.005091707050798195
7.558333333333334,-2.24991798400879,-1.22697639465332,9.01402187347412,0.020606674987678923,-0.021766552382624847,0.0021988290711996367
7.566666666666666,-2.21364045143127,-1.51304090023041,10.01486682891846,0.0061822923231316055,0.009194086167037487,-0.004856333544705642
7.575,-0.25471505522728,-0.44757530093193,10.62507152557373,-0.0041942490712456315,0.026371420062291682,-0.01235251511697926
7.583333333333333,0.35958057641983,0.18729004263878,11.14423656463623,3.79994799739635e-06,-0.006477793972913928,-0.01685388569878296
7.591666666666667,0.53107714653015,0.85432124137878,11.21977043151855,0.009701714839428251,-0.013706189496093533,-0.008493554646008343
7.6,2.18175005912781,1.14483392238617,10.12463474273682,0.025356830588377177,-0.04193958152105467,0.0036515267496348407
7.608333333333333,1.12005352973938,0.13519975543022,9.0720796585083,0.0377799818920816,-0.06911054912161538,0.004016768630091879
7.616666666666666,-0.40435764193535,-0.53900003433228,8.1141529083252,0.02560919006879734,-0.05838106424147123,0.00047812288259425884
