Time (s),Acceleration x (m/s^2),Acceleration y (m/s^2),Acceleration z (m/s^2),Gyroscope x (rad/s),Gyroscope y (rad/s),Gyroscope z (rad/s)
0.0,0.02776733599603,0.02212374284863,9.77270793914795,0.009011912424611192,-0.0005717804259657516,0.0002849961099620189
0.008333333333333333,0.00035048931022,0.02652274258435,9.77087688446045,0.006751614266501134,8.516354841958059e-05,-0.001717129548957196
0.016666666666666666,0.00400559185073,0.02522807754576,9.75073432922363,0.006351054552755905,0.0004289471189248481,0.0008576707039671164
0.025,0.00396264484152,0.02941964194179,9.7800235748291,0.005864661469166619,-0.0004296176230444618,-0.0002865608146303537
0.03333333333333333,0.02964138053358,0.03353967890143,9.74705791473389,0.006179386772770571,-0.00203230166025183,-0.0017452939078934687
0.041666666666666664,0.01881197653711,0.01572910137475,9.73974704742432,0.0062652201426146295,-0.0017743521422855825,-0.0015164028843938134
0.05,0.01529277861118,0.01623695343733,9.74340915679932,0.006923281526338033,0.0012868411292094406,-0.0012316300807492708
0.058333333333333334,0.01153052970767,0.0277959741652,9.75071811676025,0.006407830338393785,0.0012591240981124573,0.0012859472537536001
0.06666666666666667,0.02425529062748,-0.00467080622911,9.71412563323975,0.007266618646754875,0.00042850005115986287,-0.001259794439685544
0.075,-0.00325454352424,0.01973469369113,9.74341678619385,0.00746689772340449,0.0004575584806077047,-0.0007734011610405287
0.08333333333333333,0.00403390126303,0.03133664280176,9.74339389801025,0.009240803838222305,-0.001260688705252841,-0.0036622558558467504
0.09166666666666666,0.01146578509361,0.00465644476935,9.77272033691406,0.006293384631588055,0.0015725079383469762,-0.001975525614539646
0.1,-0.00148101267405,0.03258128836751,9.73240756988525,0.004949096855019038,-0.001231630210786423,-0.002117241804825983
0.10833333333333334,-0.00504284491763,0.01837567053735,9.77270603179932,0.008067736513799332,-0.0016599065655171787,-0.00125845336642774
0.11666666666666667,0.06466885656118,0.00618720892817,9.72693634033203,0.006064493738125551,0.0008290592772656838,-0.000831071017189803
0.125,0.00418441323563,0.00122313608881,9.76905918121338,0.005578994269917625,-0.0015177439576517916,-0.0021454059036879517
0.13333333333333333,0.03358975052834,0.02725948393345,9.72691535949707,0.006780226083314023,-0.00037284199995310925,-0.0015454613788602313
0.14166666666666666,-0.00665911659598,0.03518485277891,9.77269458770752,0.00826801663074634,0.0006569439743851577,-0.0024333079216134353
0.15,0.00611602561548,0.00473510473967,9.76723003387451,0.005865108276857299,-0.0013179114286183795,-0.00328986115122373
0.15833333333333333,0.0336755849421,0.03628637269139,9.73605632781982,0.007266618646754875,-0.0013447345842596966,-0.0008006713844468309
0.16666666666666666,0.0044991383329,-0.00153786118608,9.75624847412109,0.005378715193268012,-0.0012021249086293243,-0.001087232264095761
0.175,0.0155717395246,0.03735930100083,9.76534652709961,0.007724848281667955,-0.002888855149936429,1.117631950628733e-06
0.18333333333333332,0.00298988842405,0.03067138977349,9.77085494995117,0.0068378949641846555,-0.0017452939078934687,-0.0008865055345138022
0.19166666666666668,0.0104646096006,-0.00176675221883,9.74710083007812,0.008697186600858631,-0.0017162354134270508,-0.0007720600227639745
0.2,0.01791060715914,0.0465435385704,9.74518203735352,0.007838399332794758,0.00031494864243063035,-0.0008024595904883704
0.20833333333333334,0.01423416752368,0.01424130890518,9.75805759429932,0.006551334149554302,0.0002581729218115009,8.4269429144036e-05
0.21666666666666667,0.03068569675088,0.02026400342584,9.75804424285889,0.00783884614048544,-0.001889691854584131,-0.0027748565108958578
0.225,-0.00942029431462,0.00808271300048,9.75625610351562,0.007124008971124328,-0.0018610806879570025,-0.002545518289593891
0.23333333333333334,0.03832477703691,0.01231007743627,9.74341583251953,0.005578994269917625,-0.0013170171630512567,-0.0015731784099572146
0.24166666666666667,0.0201281234622,0.00171668396797,9.71597003936768,0.006923281526338033,0.00048751094805756553,0.00019826787312887846
0.25,0.01275342237204,0.01881912350655,9.74523258209229,0.006751613746352525,0.00020050314693540301,-0.0008024595904883704
0.25833333333333336,0.02007048390806,0.01022868230939,9.75440979003906,0.006980951447505884,-0.0021194768835767794,-0.0031459100122239224
0.26666666666666666,-0.01454163063318,0.01076503843069,9.74527072906494,0.006007271664945773,0.000486169874799762,-0.0009173523000403354
0.275,0.01653021946549,0.02043567225337,9.7507266998291,0.0073238407199346526,-0.000658061513760556,-0.001087679331860746
0.2833333333333333,0.01291803456843,0.02286763861775,9.7525577545166,0.004691147337052966,0.001830457326275897,-0.0007470250731641967
0.2916666666666667,-0.00919140316546,0.02690184302628,9.75986862182617,0.005636217383394797,-0.001287511860894158,-0.0007720599577453984
0.3,-0.01092239096761,0.02914783544838,9.73789501190186,0.0064078298182450024,-8.717528834352528e-05,-0.00203230166025183
0.30833333333333335,0.02936957404017,0.02423383109272,9.75620555877686,0.008583189262189582,-0.0024909781028555904,-0.0028307376408548096
0.31666666666666665,0.00393406348303,0.02858276106417,9.75436782836914,0.0071235621634336485,-0.00145828602549813,-0.00017122119985975631
0.325,0.01503527630121,0.0346841365099,9.76533317565918,0.006723001929539636,-0.00045733491421574943,-0.0006875670109733828
0.3333333333333333,0.02055727131665,0.05352472513914,9.75795841217041,0.005921884062495004,0.0002849961099620189,-0.0015754138788194674
0.3416666666666667,0.00773209938779,0.02469879947603,9.75620460510254,0.006723449777527709,-0.0019169622080275857,-0.0010286684024536682
0.35,-0.00859056413174,0.0142484633252,9.75441074371338,0.008439685451029064,-8.672823683314045e-05,-0.0020327488580539677
0.35833333333333334,-0.01224566716701,0.02040706016123,9.74707221984863,0.006121716851602721,-0.00025839650445788197,-0.0015459084466252163
0.36666666666666664,0.01156614720821,0.02269596979022,9.73058414459229,0.006837447636345192,-0.0005735686320071164,-0.0018029635689870151
0.375,-0.00851161777973,0.02513507567346,9.7525520324707,0.006665778816062466,-0.0004309588263395921,-0.002232133929210763
0.38333333333333336,0.0134902484715,0.03302467614412,9.75618362426758,0.006065387873655522,-0.001457839087770297,-0.00011355139247445762
0.39166666666666666,0.03191607818007,0.02621515654027,9.75619983673096,0.006179386772770571,-0.001115396492995056,-0.0008292828761668397
0.4,-0.00277530308813,0.02117956802249,9.75256538391113,0.007009563784467382,-8.315180849546137e-05,0.0007141667627694469
0.4083333333333333,0.00821861624718,0.02183762937784,9.77636241912842,0.006292937303748764,0.0018013989618466317,-0.0013492051318727458
0.4166666666666667,0.01357609592378,0.00949897523969,9.76541137695312,0.00732384176023187,-0.0010304565434766314,-0.0014873443899273955
0.425,0.02463439106941,0.01004974450916,9.74710750579834,0.007266618646754875,0.0001714447174875613,-0.0012602416374878555
0.43333333333333335,0.01545714400709,0.02528532780707,9.74888038635254,0.005435490978905718,-0.0011171848940923236,-0.001544120175565101
0.44166666666666665,0.01373362727463,0.01291805226356,9.75257778167725,0.007867457437149719,0.0009193639099273025,0.0011983249626636658
0.45,-0.01746753789485,0.00798258930445,9.73247146606445,0.0077530117303441625,-0.0004595701880224486,-0.0021467472370202342
0.4583333333333333,-0.01378388889134,0.02876161411405,9.73606204986572,0.006608557263031298,-0.0006334736969443393,-0.0030618641332168925
0.4666666666666667,0.02105081640184,0.02019247598946,9.74524021148682,0.007638119215847926,0.0003976534156704818,-0.0027203160640830787
0.475,0.01371915265918,0.01728126779199,9.7818775177002,0.009383860321543532,-0.0008869526022789618,-0.001487791457692381
0.48333333333333334,0.02656565792859,0.04718015342951,9.73416137695312,0.007809341748588579,0.0016033548339106616,-0.0005480866796609295
0.49166666666666664,-0.00465650064871,0.02783171273768,9.78367328643799,0.0077252940490612435,-0.0014842150456093022,0.0006591793132102584
0.5,0.01927691139281,-0.00283252587542,9.73433971405029,0.0056080528944211965,-0.001741717495810565,0.0010034099839898866
0.5083333333333333,0.01023588702083,0.0268875118345,9.73056411743164,0.007037727233143589,-0.0012025718463571575,-0.0013438405787668784
0.5166666666666667,0.00118737190496,0.0422232337296,9.7634801864624,0.0056648281599102936,-0.0023778733392706857,-0.0023997786194596637
0.525,0.02885456755757,0.01340442802757,9.75808715820312,0.006093105034789831,-3.1740746637450974e-05,-0.002547753628418991
0.5333333333333333,-0.00409836182371,0.01938425377011,9.76358222961426,0.006064493738125551,0.0013141113526157432,-0.0020072665155963236
0.5416666666666666,0.03057125024498,0.03275286778808,9.77083396911621,0.006750720130971164,0.0013163466914408437,-0.0009768102321939972
0.55,0.01032870542258,0.02422667853534,9.79466724395752,0.00752456764457234,-0.0016013427688936618,-0.0008851643962374226
0.5583333333333333,-0.00419156579301,0.02281041629612,9.74890995025635,0.005950495359159285,0.0005451808042068398,8.292828274035622e-05
0.5666666666666667,0.00492125703022,0.01784632727504,9.75625038146973,0.005807886203677522,-0.001087679396879322,-0.0009718926168159626
0.575,0.00684537459165,0.01658028364182,9.77823066711426,0.008639964527678852,-0.0007720600227639745,-0.0013447344542225443
0.5833333333333334,0.04901795089245,0.02281759865582,9.7800235748291,0.004920932886194223,-0.00031919565616127417,-0.002718974600713819
0.5916666666666667,-0.00037197733764,0.00296128750779,9.76365375518799,0.005722498081078144,-0.0020001139515044707,0.0002890195898100828
0.6,-0.01122304052114,0.02349714003503,9.74890899658203,0.007495956347908059,-0.0017466349811514467,-0.0017144471423669355
0.6083333333333333,0.01456318795681,0.01141593698412,9.77276515960693,0.004862816157335691,0.0005429455304003152,-0.0010326916872460037
0.6166666666666667,0.02366160415113,0.03004909306765,9.75619888305664,0.005749321626830918,0.001687847390571046,-0.0009781513704705512
0.625,0.01986342296004,0.02130115777254,9.74159145355225,0.006236162038259668,0.0017182472183697463,-0.0002056442311774412
0.6333333333333333,0.00875507947057,0.00532171502709,9.74350261688232,0.005148483356584683,0.0009372461653980751,-0.0036653855902763002
0.6416666666666667,0.01599375717342,0.01502097025514,9.7672643661499,0.007066339049956478,8.784585748171506e-05,-0.00025929057496945087
0.65,-0.00415580160916,0.02098644152284,9.74893188476562,0.005980000791353536,-0.0014873443899273955,-0.000741660455039753
0.6583333333333333,0.02709469012916,0.02714508399367,9.78184795379639,0.007267066494742774,-0.001261135773017826,-0.0021445120282322853
0.6666666666666666,-0.00026475233608,0.02768147923052,9.77636814117432,0.008238064390861407,0.0016020135005783793,-0.0013219349084664434
0.675,0.01607959158719,0.01356178987771,9.74347400665283,0.006838342812172555,-0.0023179688595008218,-0.0012830414433182612
0.6833333333333333,0.01442728377879,0.03244529664516,9.74887466430664,0.007323841240083262,0.00017323293978387555,-0.0005744627675372614
0.6916666666666667,0.01075826026499,0.02378306724131,9.72877597808838,0.004892321589529942,-0.0017488703199765472,-0.002199946350500556
0.7,-0.000100139805,0.03146535530686,9.72325325012207,0.0078679042448404,-0.0011136083519720926,-0.0004564408437043551
0.7083333333333334,0.01465617492795,0.01204538717866,9.73615646362305,0.00743806328296926,0.0003706066936373839,-0.0019196443545433672
0.7166666666666667,0.01096530817449,0.01815391518176,9.73979759216309,0.005806544220159479,0.0016842711085251197,-0.0022088877058011333
0.725,0.01447020098567,0.02596482075751,9.74158573150635,0.005780168002245994,-0.002692151315035349,-0.001997431284840081
0.7333333333333333,0.02020678110421,0.02102220617235,9.75442504882812,0.006265667470453919,-0.001347416730775478,-0.002000560759195152
0.7416666666666667,0.03860389441252,0.02690184302628,9.72875308990479,0.006752507881882671,-0.003034593779773438,-0.001853033598223723
0.75,-0.00325432769023,0.03303896263242,9.7543830871582,0.008038678409444545,-0.0008914231498920109,-0.003004194472123346
0.7583333333333333,0.00414864905179,0.01901225745678,9.74712944030762,0.006866505740700153,-0.0005704392226706215,-0.0005722274287121608
0.7666666666666667,0.02617940492928,0.00500698992983,9.75818061828613,0.006293831439278735,-0.0008324122204847586,-0.001945126566964033
0.775,0.00243218964897,0.02010667324066,9.75078392028809,0.007723058970310447,0.0010530326853873048,-0.0032380025908526023
0.7833333333333333,0.02615079469979,0.01892642304301,9.75262260437012,0.007296124599097734,-0.002318862734956488,-0.0018552689370488235
0.7916666666666666,-0.00843298342079,0.0251565054059,9.7837381362915,0.006780672370856096,-0.0014323570053869578,-0.0018002814224712335
0.8,0.02278923988342,0.02361149899662,9.73244571685791,0.006752061074191989,-0.0009473047349811699,-0.002345238692795668
0.8083333333333333,0.01005689706653,0.02434112504125,9.76541137695312,0.006666226664050539,-0.0008856114640024078,-0.000743448726099694
0.8166666666666667,0.01194520387799,0.02845401130617,9.74891567230225,0.007152620267788609,-0.0009124347496808772,-0.00034244239971951263
0.825,0.0284969266504,0.02342556044459,9.72697257995605,0.006550440014024156,0.0014312394660115598,-0.0008359885675492611
0.8333333333333334,0.01559350825846,0.01136578898877,9.76733016967773,0.0066948374405662115,-0.0017211528987681076,-0.002600505804171655
0.8416666666666667,0.01758179999888,-0.00648761587217,9.75096416473389,0.007036833097613619,0.0008594588449900795,-0.000891423084873435
0.85,0.01015703659505,0.02160873822868,9.76360893249512,0.007553627309373127,-0.001139090434355432,0.00034445417215283263
0.8583333333333333,0.00108723214362,0.02012809924781,9.72335338592529,0.006008612608166424,-0.0008516354841951077,0.0011732899480453118
0.8666666666666667,0.01394089125097,0.04635042324662,9.73599910736084,0.005262481215402166,0.0009117639529775837,-0.001979102416734181
0.875,0.00113014923409,-0.00260363472626,9.74729347229004,0.0066948379607148206,-0.00031248980223232505,-0.00040190039689175027
0.8833333333333333,0.0322307087481,0.02912637591362,9.75074100494385,0.007582684373430871,-0.0020850538360043195,-0.0003102545934443766
0.8916666666666667,0.02142309769988,0.03349671140313,9.76720809936523,0.006093105034789831,-0.001008103740392635,-0.003060522669847458
0.9,0.01785349659622,0.02486328221858,9.77093410491943,0.006953233766222965,-0.00237608506821057,-0.001596872351317765
0.9083333333333333,0.02904769591987,0.01075787562877,9.76551914215088,0.006120822195923967,0.000740095717862043,-0.0021789349457674184
0.9166666666666666,-0.01679511927068,0.03333938121796,9.79103183746338,0.006321549120561654,0.00039675924763113603,-0.0021489824458081827
0.925,0.03077861852944,0.01538577582687,9.75816440582275,0.008011409096298308,-0.0016004488934379959,-0.0009128817524272863
0.9333333333333333,-0.00384107674472,-0.00399843929335,9.78029632568359,0.009040523721275472,-0.0013469699230847971,-0.002372955853929804
0.9416666666666667,0.01632269471884,0.0330246835947,9.72692775726318,0.007295677271258446,-0.0009133286901551193,-0.0007143902316332762
0.95,0.01094374805689,0.0210150834173,9.75997447967529,0.008756199025693133,-0.002974242232238415,-0.001280359166765153
0.9583333333333334,0.03317488729954,0.01258900389075,9.75819492340088,0.007066340090253695,-0.0017216002266073973,-0.002800338593279197
0.9666666666666667,-0.00881230272353,0.02600773610175,9.77094841003418,0.005863766813487865,0.0006247561356008209,-0.0023219916891629505
0.975,0.00759631907567,0.02258152514696,9.73250865936279,0.006293385151736838,-8.762233985391013e-05,-0.0016330835399130134
0.9833333333333333,0.020428519696,0.04921871051192,9.80007457733154,0.008525518820873122,-0.0008614706499326003,-0.002517800868385451
0.9916666666666667,0.02602204307914,0.00381246535107,9.75278663635254,0.006635827096326144,0.001197430697096543,-0.002352838324652332
1.0,-0.01072196196765,0.0224384367466,9.72886943817139,0.005779273866715849,-0.0012888530641891136,-0.0014569446921658476
1.0083333333333333,0.01320414803922,0.01960594207048,9.77282905578613,0.005807438355689449,-0.0005462984086008141,-0.0017457408456214765
1.0166666666666666,0.01692362688482,-0.00408427324146,9.72356796264648,0.007151725612109855,-0.0002588435397136664,-0.0016612478988494608
1.025,0.02058588154614,0.01493513584137,9.74172878265381,0.006380112657110867,-0.0005981565138419091,-0.000486840411428751
1.0333333333333334,0.04444061219692,0.01176642626524,9.73258686065674,0.007609060591344182,0.0004280529833947032,-0.0017211528987681076
1.0416666666666667,0.00050069898134,0.00344767025672,9.77114105224609,0.0072661713189154115,-1.34115821379923e-06,-0.0017193648877822968
1.05,0.01513528637588,0.0169307179749,9.77835083007812,0.00709182061219121,0.003344624741807458,-0.0020466074386211223
1.0583333333333333,0.00202425452881,0.01921253651381,9.76370239257812,0.007265724511224731,0.0005152282067196523,-0.00132059383520864
1.0666666666666667,0.04407556727529,0.02693045884371,9.7288236618042,0.00600682433710631,-0.00020519721217643165,-0.002318862474882184
1.075,-0.01269629597664,0.05697239562869,9.7744026184082,0.008266675167376903,0.0009148934273328295,-0.001722941169828223
1.0833333333333333,0.00922011956573,0.03004907630384,9.75263118743896,0.00795418598282114,-0.001545014181058094,-0.0014846621133744618
1.0916666666666666,0.0167090408504,0.01437006145716,9.77107715606689,0.00909730106735918,0.00022777337034187998,-0.0019495971145770822
1.1,0.01486344821751,0.01517121493816,9.77839279174805,0.008211689213245315,-0.0019196446146176715,-0.0021699939805784724
1.1083333333333334,0.02412653900683,0.04137919470668,9.76536178588867,0.006264773334923949,-0.0006652144679638654,-0.002946524550955496
1.1166666666666667,0.03154383972287,0.01622975803912,9.76005268096924,0.005434148995387675,0.0011115965470293973,-0.0020381132811226827
1.125,0.01864746212959,0.0092843901366,9.75463962554932,0.004462256443590287,-0.0006053094030266426,-0.001916067942460463
1.1333333333333333,-0.00331176631153,0.03705887869,9.75260066986084,0.0068101778030503456,-0.002123053425696836,-0.0027118217765476614
1.1416666666666666,-0.00131638534367,0.04881823435426,9.77998065948486,0.007296571406788416,-0.0024055907604793,-0.0019956436639657262
1.15,0.00989196635783,0.02737392485142,9.76915836334229,0.005005872640656919,2.2576160197186102e-05,-0.00231975635033785
1.1583333333333334,0.00252495356835,0.04407581686974,9.74888896942139,0.005033589801791054,0.0006216267912827276,-0.0027516095072631403
1.1666666666666667,0.03909028694034,0.05200831964612,9.76529026031494,0.0062951723824995615,-0.002465942828162932,-0.002509753908689323
1.175,0.00818285252899,0.03036381863058,9.74900341033936,0.005752451361260467,-0.003294331828873931,-0.0021346770575503466
1.1833333333333333,-0.01901941001415,0.03442663326859,9.74715805053711,0.007354240807807658,-0.0023756382605198893,-0.001738140953690334
1.1916666666666667,0.02695906534791,0.03522775694728,9.75994110107422,0.00589416638121226,-0.0008534236252178965,1.1176318237432964e-06
1.2,0.03254519402981,0.02105801552534,9.7600622177124,0.007266618646754875,-0.0013831811116802202,-0.0037449605315586503
1.2083333333333333,0.01256031729281,0.00152356864419,9.76573944091797,0.007725741376900708,-0.0013979336977401936,-0.0005409338229855714
1.2166666666666666,0.01078648678958,0.02954124100506,9.75818061828613,0.006893776094143782,0.00028723138376854346,-0.0010917026816716579
1.225,0.0217446424067,0.03385440632701,9.76546192169189,0.007579556199447323,0.0016024606983805166,-0.0014404039650829112
1.2333333333333334,0.00518581131473,0.00876223295927,9.76019763946533,0.007780728891478298,0.00040033569222341545,-0.0015785429630632566
1.2416666666666667,0.01974184624851,0.03485580533743,9.73799514770508,0.005721603945548173,-0.0008342003615077218,-0.0022017346215606718
1.25,0.00156647257973,0.01738140918314,9.78394508361816,0.007898304852862012,-0.00254373027860808,-0.001079185304399633
1.2583333333333333,0.04020613059402,0.01421985216439,9.76014709472656,0.008553235982007431,0.0002867843160035582,-0.0015213204997718477
1.2666666666666666,0.0200352165848,0.02979875542223,9.78932476043701,0.007179890621232064,0.000546521942483394,-0.0008069301381014195
1.275,0.01083638612181,0.00974933803082,9.73823642730713,0.008010513920470946,-0.0006330266291793542,-0.0024042492971098656
1.2833333333333334,0.00538609083742,0.02351139485836,9.77107715606689,0.005721603945548173,-0.0008923172204034055,-0.0023734029216947884
1.2916666666666667,0.00728132948279,0.02002090401947,9.73814392089844,0.007211184844635039,-0.0026921515751096537,-0.0020510779862341713
1.3,0.02944086119533,0.04100731015205,9.76175498962402,0.0073251821833040884,-0.0020327487280168153,-0.00182486923928745
1.3083333333333333,0.01682348735631,0.02135123685002,9.75278663635254,0.007839293468324902,-0.0012347595551043418,-0.002601399939701626
1.3166666666666667,0.02607926540077,0.02758851461112,9.76188564300537,0.007980561680586013,0.0010646560571665113,-0.00026599634762504887
1.325,0.01137289404869,0.01541441492736,9.76384353637695,0.006381006272492227,-0.002030960326919548,-0.0011091376743218914
1.3333333333333333,0.02801066637039,0.02146562747657,9.7656135559082,0.006181620811223976,-0.002660857611780983,-0.001220900844500035
1.3416666666666666,0.01906947977841,0.00703124469146,9.73647117614746,0.005406879162092829,-0.0005731216292607073,-0.0012589003041555732
1.35,0.0208934545517,0.04047793895006,9.74164295196533,0.005980000791353536,-0.0019209858179128018,-0.0021109832462271228
1.3583333333333334,0.01564326696098,0.00264655193314,9.75665664672852,0.006293831439278735,-0.0006035211969851032,-0.0018311279279234623
1.3666666666666667,0.00653054565191,0.01239587645978,9.76756477355957,0.005836944308032308,-0.0012901942674842439,-0.001713106069109132
1.375,0.01022871769965,0.04406153783202,9.77274417877197,0.006464605603882882,0.0007150607682622651,-0.001322828913959436
1.3833333333333333,0.01756715402007,0.00793251954019,9.76760673522949,0.006665332528520569,-0.0005176870144087567,-0.0019178562135205785
1.3916666666666666,0.01758168824017,0.02499203383923,9.77110576629639,0.006950999207620777,-8.806938323699475e-05,-0.001920091422308527
1.4,-0.00808986555785,0.03243099153042,9.73076343536377,0.007295677271258446,-0.0007130491583754727,-0.001030009475711646
1.4083333333333334,0.01032155193388,0.00930584874004,9.73648548126221,0.007866563301619748,0.000256384732024562,-0.0017502113932345255
1.4166666666666667,0.01766752265394,0.00291835982352,9.76401710510254,0.0065803927740578725,-0.0007725070905289597,-0.0013442875164947111
1.425,0.01774620264769,0.0073388167657,9.78595447540283,0.007352452536747542,-0.00013590401675732608,-8.896349438506462e-05
1.4333333333333333,0.01772455684841,0.02070041373372,9.78032398223877,0.006582627852808668,-0.003119980862075424,-0.0015897193971144555
1.4416666666666667,0.01243164110929,0.02813213132322,9.73997592926025,0.006325572470372566,-0.0023385329363944957,0.00020899715814191568
1.45,0.02365435659885,0.01790357753634,9.76204872131348,0.0077252940490612435,-0.0010827617164827117,-0.0006848847994390253
1.4583333333333333,-0.00013590401795,0.04759501665831,9.74345207214355,0.006206657126214026,-0.00012606885914695907,-0.0034932702223771984
1.4666666666666666,0.00724582979456,0.02426959574223,9.74003314971924,0.007241136564371362,-0.001993407935029169,0.00034981875776807534
1.475,0.03119354881346,0.03231654316187,9.7472505569458,0.00783884614048544,-0.0008283887406366949,-0.0013447347142968487
1.4833333333333334,0.04043501988053,0.03313912078738,9.76372337341309,0.006809730475211056,-0.0015177439576517916,-0.0015982134245755683
1.4916666666666667,0.01313261967152,0.00984946452081,9.76582622528076,0.006666226664050539,-0.000804694929313471,-0.002059572143732437
1.5,0.03699450194836,0.01779627241194,9.76755714416504,0.007695341809176312,9.008112316093945e-05,-0.0006915905558400228
1.5083333333333333,0.00215300568379,0.01401241961867,9.70537757873535,0.0066635442574604535,0.0015161793505112336,-0.001356357956038903
1.5166666666666666,0.02953408844769,0.01137302070856,9.7438383102417,0.007008669128788628,-0.0006044152674964976,-0.0020032431657854123
1.525,0.0149352569133,0.02127253636718,9.76389694213867,0.006981846103184463,-0.001198995564311231,-0.0009701043457558471
1.5333333333333334,0.0223526339978,0.03493448346853,9.78754234313965,0.007152619747639826,-0.0013232761117615735,-0.0027431152197277234
1.5416666666666667,0.00598692940548,0.02622232213616,9.77850818634033,0.006981845583035854,-0.0007041080631491998,0.000628779680467461
1.55,0.00971333961934,0.01179499831051,9.74570465087891,0.007149937861198348,0.0012287244003509096,-0.001727411717441272
1.5583333333333333,-0.00501425424591,0.01059340778738,9.75306510925293,0.006468628953693793,-0.0028307376408548096,-0.0009607161827645892
1.5666666666666667,0.01713082753122,0.01821117661893,9.72732162475586,0.0070958439620021204,-0.001261135642980674,-0.001828445651370354
1.575,0.00997117441148,0.01012123189867,9.77320957183838,0.007870139843739805,-0.002946971358646351,-0.0015901664648796153
1.5833333333333333,0.0101427314803,0.02683031372726,9.73639297485352,0.004951332453918444,-0.0017363526826302184,0.0006359325046334438
1.5916666666666666,0.02496341615915,0.02024969831109,9.76393222808838,0.006663991065151135,0.001437945092375405,4.4928798702917146e-05
1.6,0.01386183034629,0.01502812746912,9.74203491210938,0.007494168596996554,-0.00012159833591598507,-0.002836102454035156
1.6083333333333334,0.02488449215889,0.01414113212377,9.76950168609619,0.005690758090281705,0.000821906583136853,-0.002440461005853897
1.6166666666666667,0.00833277683705,0.01624409295619,9.75669288635254,0.005176647325409499,0.00024565547952090004,-0.003094498779692085
1.625,0.05227297544479,0.00570796849206,9.74944686889648,0.006435100691837239,0.0005098636211044096,-0.002123947691264133
1.6333333333333333,0.01379820518196,0.01009270176291,9.77508354187012,0.0075214394705887914,0.0007941892269468148,-0.002755633377222836
1.6416666666666666,0.00820431113243,0.01588646508753,9.74938201904297,0.006866059453158081,-0.0013536756794859696,-0.002885725675581183
1.65,0.01746724173427,0.01647299714386,9.74937534332275,0.007437392811358847,-0.0008717528184166767,-0.0038048655314772972
1.6583333333333334,0.01387651544064,0.02471307292581,9.77675628662109,0.00646505345187078,-0.0004640407356354977,-0.0023756382605198893
1.6666666666666667,0.01572910137475,0.02877588756382,9.76572608947754,0.005551277108783491,-0.0014345922141749065,-0.0017975988858439957
1.675,0.02505640871823,-0.00023604382295,9.7495756149292,0.006980951447505884,-0.0007698248139760259,-0.0009437282578795152
1.6833333333333333,0.006787836086,0.02082915976644,9.78414535522461,0.007010904207539423,-0.002729703967000032,-0.003364072059548821
1.6916666666666667,-0.00764667568728,0.0230036303401,9.76765632629395,0.0062951723824995615,-0.0019813376255221294,-0.0025383652053536034
1.7,0.01079350803047,0.0289690233767,9.76024627685547,0.00783884614048544,-0.0008024595904883704,-0.0018883507813261533
1.7083333333333333,0.03296745195985,-0.02726663649082,9.74625682830811,0.008214817387228865,-0.003402070999055576,-0.00130047643596832
1.7166666666666666,-0.02543595060706,-0.0069739385508,9.7167854309082,0.006121269523763257,-0.0011328316156822673,-0.0040596858351626035
1.725,-0.02901908382773,0.00279676169157,9.72765922546387,0.006066282529334276,-0.0018968446787501138,-0.0026818692765884253
1.7333333333333334,-0.03610755130649,-0.04678674414754,9.67700958251953,0.0055767597113154386,0.0003323837000994401,-0.002924171942927402
1.7416666666666667,-0.09659245610237,-0.04492705687881,9.65692520141602,0.00723308934460093,0.0008232475913760804,-0.007276677281356372
1.75,-0.24705919623375,-0.02296777814627,9.49383926391602,0.0065651935103443705,0.008500485106626465,-0.005578323798307214
1.7583333333333333,-0.19109527766705,0.00828319974244,9.44943618774414,0.007356475886558455,0.015136534826574947,-0.006192127293813544
1.7666666666666666,-0.05299541354179,-0.02888317964971,9.47538566589355,0.008663211011162786,0.02116548524697227,-0.007718365148889298
1.775,-0.10966739058495,0.00109438493382,9.48788166046143,0.004765805313143042,0.02508569374167727,-0.006739767360839521
1.7833333333333334,-0.09353692084551,-0.00425819354132,9.5758056640625,0.00616105725447891,0.02925624978182259,-0.008111324450554775
1.7916666666666667,0.25033751130104,-0.01330647431314,9.74434375762939,0.00764750737883901,0.03058712500529222,-0.006174245103361175
1.8,-0.05788857117295,-0.04467649757862,9.75758266448975,0.006333172362303533,0.029831155520954195,-0.007657119205749825
1.8083333333333333,0.00569900777191,-0.04690895602107,9.81441211700439,0.006589781457197738,0.030390870838899343,-0.009778385790795568
1.8166666666666667,0.1187729537487,-0.05341027677059,9.84201145172119,0.006394865113133687,0.026930679730019103,-0.009441305538494434
1.825,0.20803327858448,-0.04063530266285,9.91518497467041,0.006259409041892211,0.022902288638408087,-0.012934576020945936
1.8333333333333333,0.07205058634281,0.08732905983925,9.89150905609131,0.004403245579201786,0.020257524165796445,-0.009971510742907502
1.8416666666666666,-0.02341847680509,0.16757661104202,10.00575351715088,0.006297407981398966,0.015741844294620166,-0.0052779041430354
1.85,0.37834230065346,0.09483929723501,10.03463077545166,0.006967093127013033,0.010788499905721876,-0.010366705123323777
1.8583333333333334,-1.12652266025543,0.08395291864872,10.5603141784668,0.0049046158230310185,0.012947989614342542,-0.012127648613624888
1.8666666666666667,2.4449417591095,0.90144419670105,9.56005382537842,0.008985984054685783,-0.0032679556109604466,0.0052629285432416305
1.875,-1.37604248523712,-0.39791265130043,10.24575328826904,0.006078352058618402,-0.007981679480035716,0.002802349748035957
1.8833333333333333,0.03080729395151,0.3411548435688,9.61162567138672,0.0013713343360557606,-0.014084396861884972,-0.0013661931867951465
1.8916666666666666,-0.40986511111259,0.00368373678066,9.54964065551758,0.008963630146285815,-0.004927414978675488,0.0008956700986039041
1.9,0.31717136502266,-0.41351300477982,9.59447288513184,0.0027741855191368366,0.00023492621076246322,0.00022822042185226482
1.9083333333333334,-0.12794972956181,0.06003382429481,9.78180027008057,0.003949487142087517,0.00010617502629859472,-0.0022880158393928027
1.9166666666666667,0.34025347232819,0.22969211637974,9.71597957611084,0.009899312029636563,-0.0005449572378150592,0.001439286295670361
1.925,0.02670871466398,-0.64169585704803,9.76576232910156,0.0119888375835883,-0.0003294778896639265,-0.0011931838134030513
1.9333333333333333,0.0720791965723,0.01461325772107,9.59769153594971,0.0014649916518619755,-0.000934787227671993,-0.007374581740930382
1.9416666666666667,-0.25835353136063,0.25672268867493,9.57391548156738,0.006720767370937449,0.0030571703117955673,-0.0066557212217583615
1.95,-0.11363006383181,0.14920115470886,9.66892719268799,0.010119709415786564,0.005625935084873567,-0.004353399473959114
1.9583333333333333,-0.03180154040456,0.11491757631302,9.89105892181396,0.0033374719176413005,0.005539207059350755,-0.0024686252347530177
1.9666666666666666,0.037652567029,0.45618686079979,10.03115367889404,0.006001012196086675,0.0029409363339298967,0.0016713065334509575
1.975,0.01940591260791,-0.09800116717815,10.05154514312744,0.01219313948990022,-0.004095450216067171,0.0044121869345021885
1.9833333333333334,0.14101114869118,-0.16251973807812,9.91342544555664,0.004680418230841056,-0.008409955834766471,-0.0009414930490915668
1.9916666666666667,-0.05670056864619,0.06323110312223,9.7122859954834,0.002762562277394782,-0.00866164640402223,0.00043297056626353674
2.0,-0.16017360985279,0.06052735820413,9.53092765808105,0.00807757200462988,-0.004770499654712976,-0.0010787382366346477
2.0083333333333333,-0.09445336461067,-0.26265951991081,9.53551769256592,0.00832926309403442,-0.001565131580298239,-0.0009866453329130881
2.0166666666666666,0.07335955649614,-0.07912474870682,9.60089588165283,0.0060023531393075,0.0038493473436884054,-0.003429341352499031
2.025,0.06690054386854,0.06030561774969,9.71615028381348,0.008462485126822319,0.004049627720709716,-0.004144626369848213
2.033333333333333,0.09642747789621,-0.1111766397953,9.83582401275635,0.008580953143141567,0.0025542357209004315,-0.005249740694359193
2.0416666666666665,0.07695743441582,0.12586142122746,9.84709739685059,0.0011750782191054274,0.00019022094594212596,-0.005666393807348068
2.05,-0.07407468557358,0.35516014695168,9.78139209747314,0.007811575787041984,-7.868126900971243e-05,-0.00114043150761341
2.058333333333333,-0.13890820741653,0.08463244140148,9.79066848754883,0.009927029710919306,-0.0003943005699791838,0.002153676787378116
2.066666666666667,-0.13096855580807,-0.06097798794508,9.79461002349854,0.006351501880595195,0.00023447914299747798,-0.0008570001023195512
2.075,-0.02532821707428,0.06335988640785,9.84239101409912,0.00515071843533548,-0.00033886598763643394,-0.0007389782435052211
2.0833333333333335,0.03904051333666,-0.00516442023218,9.86910057067871,0.006384583334761067,-0.00143727449072784,-0.002590670573415412
2.091666666666667,0.09094122052193,-0.12203462421894,9.84155941009521,0.004497126168816277,-0.0028825956810773286,-0.00020609128268782604
2.1,0.03581428527832,0.01542152930051,9.7131462097168,0.005676004593961666,-0.00515183519448779,-0.001790892999405671
2.1083333333333334,-0.00203140731901,-0.00605130521581,9.60171127319336,0.009051253347635992,-0.004891203790080239,-0.002249569311972279
2.1166666666666667,-0.06687223166227,-0.15844975411892,9.54346466064453,0.00824231192474066,1.3858635426518577e-05,-0.004202296030941759
2.125,-0.04776686057448,0.07096320390701,9.65183162689209,0.005913391075331284,0.004879357924715845,-0.0034096716712096317
2.1333333333333333,0.00802581105381,0.19185377657413,9.72884082794189,0.008089196286669152,0.004617831344480932,-0.004551444252080845
2.1416666666666666,0.00979939475656,0.07932502776384,9.87520027160645,0.008752175155733611,0.0015841313101260083,-0.0009808336470234847
2.15,0.05356061086059,0.08443934470415,9.9117956161499,0.00597731838476345,0.0012050305890275114,-0.0011221022493960535
2.158333333333333,0.02585027366877,0.12805019319057,9.86350440979004,0.004579385077134713,-0.0009106464786207617,-0.0005923448279524805
2.1666666666666665,-0.11787181347609,-0.06518382579088,9.81679916381836,0.0073296528609542895,-0.0029831825472415997,0.0008268240034591592
2.175,-0.10096228867769,-0.08949641138315,9.73845386505127,0.005726074623198375,-0.0017403762925154343,-0.0008994699795509867
2.183333333333333,-0.04280261322856,0.06064895540476,9.69047832489014,0.0062115746115549075,-0.0010836558520126822,-0.001190948604615103
2.191666666666667,0.02725936099887,-0.04399710148573,9.74159145355225,0.00813032392030824,-0.0020273840448736214,-0.0016974592174818614
2.2,0.05509835109115,-0.09073381125927,9.74784469604492,0.007504003047529883,-0.0027927384412737505,-0.0043247879172205305
2.2083333333333335,0.08968928456306,0.01748877391219,9.7096061706543,0.007130713687228109,-0.0025012598812282102,-0.0034400707187852444
2.216666666666667,0.02376174367964,0.0704268887639,9.67942714691162,0.0076126371334644125,-0.0006352619029858787,-0.0028244789522189717
2.225,-0.03281009197235,0.04152940586209,9.6816520690918,0.007149937861198348,0.002346356232171066,-0.005594418237848078
2.2333333333333334,-0.08102025091648,0.12150534242392,9.73713684082031,0.006835212557594395,0.0013199231035239225,-0.00138049870508996
2.2416666666666667,-0.06102085486054,0.12106189131737,9.78478908538818,0.0076323070748281156,0.0031863682145496404,-0.0007371899074265294
2.25,-0.04416880384088,-0.03830347582698,9.85505867004395,0.007233090384898322,0.0023642384226232626,0.0004423587292547948
2.2583333333333333,0.02152290381491,-0.03521344438195,9.87888431549072,0.004579384556986104,-0.00042917062029805265,-0.0012539829488518433
2.2666666666666666,0.00299721607007,0.03036373481154,9.83755588531494,0.0072760073298945675,-0.003524116857866579,-0.002658622793104491
2.275,-0.02568585984409,-0.0287186652422,9.7780294418335,0.008479472141447326,-0.004485279783303273,-0.0014775092892083046
2.283333333333333,-0.02157319709659,-0.03120775520802,9.69200801849365,0.006415877038015433,-0.0026917042472701896,-0.0019791026768084855
2.2916666666666665,-0.01432714425027,0.0387111864984,9.67810440063477,0.006727473647487229,-0.001659906825591483,-0.001872703799661905
2.3,0.01158045232296,0.00653769867495,9.68597984313965,0.006899141427472563,-0.0013147820843004605,-0.0016746595416886085
2.308333333333333,0.01702376641333,0.0334180817008,9.72768020629883,0.0058668965479174145,-0.0003357365457905636,-0.004172789818524421
2.316666666666667,0.04049196466804,0.11465287953615,9.73188495635986,0.004062592165746726,0.0003077958507738483,-0.001917856473594883
2.325,0.01310400851071,0.08770816028118,9.75244331359863,0.00635329015165531,-0.0009021523861410726,-7.644601145778824e-05
2.3333333333333335,-0.00659531727433,0.00929879490286,9.74637699127197,0.006900035563002708,-0.001756470081870538,-0.0032165441183543042
2.341666666666667,-0.07794453203678,0.0226745121181,9.7662410736084,0.006810624610741202,-0.000559710051440136,-0.0003075722843820676
2.35,-0.05584939941764,-0.00345482304692,9.80882263183594,0.006955022557431689,-0.0012758884891149516,-0.00044481740690657253
2.3583333333333334,-0.03361120820045,-0.03066423721611,9.78366565704346,0.006614368883902324,-0.001946020442419699,-0.0018127989297804104
2.3666666666666667,0.01033613178879,-0.00874078832567,9.84744167327881,0.004835992611582917,-0.0002311262485423788,-0.0015700490656392957
2.375,0.05229443311691,0.04024189338088,9.7825927734375,0.007480310276503877,-0.005156306912435384,-0.0028159857049807726
2.3833333333333333,0.00166661245748,0.00305426400155,9.72639274597168,0.008391403692852472,-0.003123557404195655,-0.0029469716187206555
2.3916666666666666,0.00731735816225,0.03223786503077,9.67647361755371,0.008158935216972345,-0.00163174246665521,-0.002301427612269277
2.4,0.00536463223398,0.0860773101449,9.68107986450195,0.006438229906118007,0.0002970665169970099,-0.003834371223745852
2.408333333333333,0.00732451118529,0.05032024905086,9.70182323455811,0.008152229980719957,0.0009023759200236525,-0.00037686544729197244
2.4166666666666665,-0.03482719138265,0.03695873916149,9.75147819519043,0.005235658189798176,5.14110608413561e-06,-0.00077116595225258
2.425,0.04375394061208,0.06242286041379,9.80239200592041,0.006665779856359858,0.0005103107538881455,-0.0024055907604793
2.433333333333333,-0.0274169947952,0.00214588176459,9.79968643188477,0.006440464984868803,-0.0012544300166168287,-0.0012754414213499664
2.441666666666667,-0.00884806644171,-0.02665149234235,9.79287815093994,0.006383242391540416,-0.0011712781431027909,-0.0015615551682153347
2.45,-0.01995643228292,0.0177533570677,9.79212760925293,0.00592680206798467,-0.0015159558166288282,-0.0015588727616250742
2.4583333333333335,-0.03276735171676,0.04178701341152,9.78073215484619,0.00693401167284716,-0.003985028379221136,-0.0028249265401325656
2.466666666666667,-0.02488473989069,-0.00025750233908,9.750319480896,0.00616195191015749,-0.004297518343999988,-0.002279075004241009
2.475,-0.00273212068714,0.03175864741206,9.76628589630127,0.0063224437762404075,0.000538027980040857,-0.0023492620426064053
2.4833333333333334,0.02100074663758,0.04135773703456,9.75516128540039,0.006559380849175952,-0.0030028532688283907,-0.0015749666810173301
2.4916666666666667,0.03047111071646,0.0273238606751,9.75723552703857,0.006754296673091394,-0.000775189432100644,-0.0021945817973946886
2.5,-0.02077185548842,0.03816756978631,9.7313928604126,0.007327417262054884,-0.0013040528480513988,-0.0006450970687235459
2.5083333333333333,-0.00791104417294,0.04992684349418,9.73852443695068,0.006984975317465404,-0.0015110382012506194,-0.001329534800397586
2.5166666666666666,-0.04783106222749,-0.00226029846817,9.7705545425415,0.007212524747558472,-0.0009312108155889144,-0.00047655821043529937
2.525,-0.01278213039041,-0.03512045741081,9.73269462585449,0.00612529287357417,-0.001131937480152297,-0.00021771467072163292
2.533333333333333,-0.0185687802732,0.03607178851962,9.79738521575928,0.0067538493452519305,-0.00068443773167404,-0.0015946370124926645
2.5416666666666665,-0.01110836490989,0.02369021624327,9.7884578704834,0.006411853168055913,-0.000991115815507561,-0.003823641857459639
2.55,-0.01635139808059,-0.01072926446795,9.78174877166748,0.0047510528571202216,-0.0004944403358690943,-0.0021977110116754555
2.558333333333333,-0.00188099197112,0.03513477742672,9.76081943511963,0.005292433455287272,0.0002510200976455181,-0.0021753586637216667
2.566666666666667,0.02379035577178,0.03116493672132,9.71145057678223,0.007585814628009031,-0.0016496246571074066,-0.0009276344685244117
2.575,-0.03831062838435,0.02440549992025,9.72619247436523,0.00824655789817391,-0.0029237246150879384,0.00037083022751978936
2.5833333333333335,0.00761062512174,0.04361088201404,9.72588539123535,0.006178939965079717,0.0004298412219456178,-0.0015476965876481798
2.591666666666667,-0.0180394705385,0.03871833905578,9.73878860473633,0.008986877670067141,-0.001266500326123868,-7.242253973702452e-05
2.6,-0.02321812883019,-0.00422017741948,9.75604820251465,0.006980057832124347,0.0005170164452705671,-0.0016339776754431584
2.6083333333333334,-0.00312579236925,-0.00151640269905,9.76700687408447,0.004835993131731526,-0.0004238060021734346,-0.0007112609523339333
2.6166666666666667,-0.01410540658981,0.00235328543931,9.75961112976074,0.006841024178465423,-0.0009812807147884701,-0.002765021020065311
2.625,-0.03594303503633,-0.00819000508636,9.75980377197266,0.007531497064893069,-0.0024185549454420053,-0.0036671736012621114
2.6333333333333333,-0.01936274580657,0.01120850536972,9.78144836425781,0.006299644100447153,-0.0017622818327787174,-0.0035594341710061617
2.6416666666666666,-0.00111584353726,0.05182234570384,9.76607704162598,0.008331050324797142,-0.0018771743472749541,-0.0010966202970498667
2.65,0.00636603031307,0.05396819859743,9.74406719207764,0.008358321198389381,-0.0016277189868071462,-0.0019862552409001637
2.658333333333333,0.01022856496274,0.04328185319901,9.7223014831543,0.007786541552646543,-0.0016540952047204558,-0.0015284734539751574
2.6666666666666665,-0.03173001110554,0.03687290474772,9.74989032745361,0.007697577408075718,-0.0005279692804207846,-0.0003943005049606077
2.675,-0.00973501894623,0.0444692261517,9.72411155700684,0.005966141950712076,-0.005716910124126848,-0.0010045274583467085
2.683333333333333,0.00010729264613,-0.00369086698629,9.76532554626465,0.00738419304769259,-0.0009093052753256314,-0.0013067351246043326
2.691666666666667,-0.00351193919778,0.00574371544644,9.74866104125977,0.006210679955876155,-0.0010519150159747543,-0.0009620574510782955
2.7,-0.01808954030275,0.00671651959419,9.77795791625977,0.006008612608166424,1.564684604029696e-06,-0.0014582861555352822
2.7083333333333335,-0.00492135295644,-0.0604701936245,9.77922248840332,0.006289361801925926,0.002116571203178418,-0.0017359057449023855
2.716666666666667,-0.03122215904295,0.03497024998069,9.77011871337891,0.0063260197982118556,-0.000847612004347044,-0.0036247034639563715
2.725,-0.00748176919296,0.06293785572052,9.76227951049805,0.007327417262054884,-0.0013049468535442173,-0.0007881539421562301
2.7333333333333334,-0.02363299392164,0.01644438505173,9.79428768157959,0.006152562706869013,-0.0004962285744198344,-0.0026841048754878303
2.7416666666666667,0.02937672659755,0.04729459807277,9.73878860473633,0.005899978002083288,-0.002289803850378614,-0.0016657184464625103
2.75,-0.01081509888172,0.06290210038424,9.77511119842529,0.008438790275201702,0.0005961448389365405,-0.0027802210640017256
2.7583333333333333,0.00048639331362,-0.00326884933747,9.72328186035156,0.0063559720380967875,-0.0018168224096284744,-0.00021056181404627476
2.7666666666666666,-0.02145821601152,0.01811099424958,9.76682949066162,0.00577972067440653,-9.969275501602673e-05,-0.0030314645654924972
2.775,-0.00520011689514,0.06580615788698,9.74210739135742,0.006585533923318487,-0.0019214326256034827,0.0007345076308735957
2.783333333333333,-0.0229963902384,-0.00148779130541,9.74340915679932,0.0084736620810223,-0.0017140003346762546,-0.00201397279214593
2.7916666666666665,-0.00060083880089,-0.05874630063772,9.77201366424561,0.005205258101925171,0.0007991067122878716,-0.001552167005224077
2.8,-0.00660207401961,0.02576453983784,9.76488208770752,0.007294335807889011,0.0004656054077944572,-0.001119420102880272
2.808333333333333,-0.0267300568521,0.01885486021638,9.76135730743408,0.00830422833949037,-0.0025115421797494383,-0.0015772020198424309
2.816666666666667,0.00642324564978,0.01963455602527,9.75771617889404,0.007781176219317763,0.00030690171524387785,5.5211011887319054e-05
2.825,0.00792535021901,0.07573430240154,9.78409481048584,0.006837896004481873,0.00010438682838435556,-0.002804809270929398
2.8333333333333335,-0.01386936288327,0.04260948672891,9.7536096572876,0.008528648035154063,-0.0007787658441835482,-0.0029098662945952623
2.841666666666667,0.01575056090951,-0.00568651035428,9.76923084259033,0.0071226669876062855,0.0005353456384693472,-0.0027511621794238513
2.85,-0.02301069535315,0.04684396833181,9.72057723999023,0.00589461370905155,-0.0004872874791937362,-0.0016254837780191977
2.8583333333333334,-0.01381213963032,0.0444692261517,9.75908851623535,0.005470360704131706,-0.0020694069843772236,-0.0023827908246117423
2.8666666666666667,0.02321094833314,0.00300418678671,9.75993156433105,0.007833928655144555,0.0021344532635934623,-0.00039206523115408316
2.875,0.01017849519849,0.0093559185043,9.77446746826172,0.00600682433710631,0.00032791318499559175,-0.00026063172950060537
2.8833333333333333,-0.01356178987771,-0.00507851829752,9.76742839813232,0.006235715230568987,0.00037083022751978936,-0.001777034678912995
2.8916666666666666,-0.01356894336641,-0.00998536869884,9.77120590209961,0.0055217721967378485,-0.00014171570264692932,-0.001342499245434596
2.9,-0.01740257628262,0.02489192038774,9.75403308868408,0.006608109935192008,0.000536686809255102,-0.0024654957603979467
2.908333333333333,-0.02131547220051,0.06513378769159,9.72575664520264,0.005583464947567828,-0.0014788503624662828,-0.0005570277098686263
2.9166666666666665,-2.1055109500885,0.11437395960093,10.44561100006104,0.009317696372914568,0.014192806243602552,-0.008067513890176993
2.925,-8.94533061981201,0.11874806135893,17.41770935058594,0.0022462174740691724,0.3560438983766053,-0.0191052534247141
2.933333333333333,17.36254119873047,1.0912504196167,14.22766780853271,-0.00899067787610693,0.21583773811347814,-0.004946191824806613
2.941666666666667,0.17044152319431,1.12714850902557,15.36275291442871,0.019682166937636334,-0.17027839219997684,-0.019950176650649902
2.95,-2.82836294174194,0.58068650960922,11.42911529541016,0.00791752798653521,-0.1026750549361026,0.013504346852600754
2.9583333333333335,0.53528726100922,0.12598794698715,8.51337146759033,0.01709194525250621,-0.16137935619369298,0.0006386149112235297
2.966666666666667,-4.16861438751221,-0.43996602296829,7.77214002609253,-0.007809118604817455,-0.14032360566719948,0.0073269725349586375
2.975,-2.61533141136169,1.11822175979614,7.13084936141968,0.006096681576910063,-0.10072769329038778,0.008527307091933238
2.9833333333333334,-1.6864972114563,-0.08893583714962,8.23897647857666,0.01121588212492266,-0.018424832410955685,0.025021765391947712
2.9916666666666667,1.87940227985382,-0.67688065767288,9.49653625488281,0.0067107087363359515,0.006375419355838325,0.017156543553697397
3.0,3.1662335395813,0.00139480188955,9.53820991516113,0.0026606342079355553,-0.03094051815956734,0.01224991475538949
3.0083333333333333,1.07650399208069,-0.29686397314072,8.71952247619629,0.01151540660436711,-0.025722517976153197,0.008272485747950713
3.0166666666666666,-0.17582403123379,-0.4937678873539,7.92992067337036,0.004694723359024413,-0.00028477257607961357,0.004520820500288283
3.025,0.54435288906097,0.06757308542728,7.6904730796814,0.0015747431471349247,0.02043634503002224,-0.0051920702530427335
3.033333333333333,-1.74222838878632,0.20630845427513,8.65245342254639,0.0062160452892051085,0.03020981333547675,0.0007409899834293402
3.0416666666666665,-2.08481884002686,-0.44650521874428,9.9075288772583,0.010919040572217079,0.058624040240238144,-0.005794698354795084
3.05,-0.87055748701096,0.09109638631344,11.72695446014404,-0.000967869267005051,0.08556030844735715,-0.004502268358374283
3.058333333333333,1.69289219379425,-0.05348158627748,11.96579933166504,0.006137810250846193,0.027441661280610367,-0.006780895514627218
3.066666666666667,0.43241122364998,-0.03674314171076,11.7192325592041,0.007137419963777715,-0.03523803624349302,-0.014134019043133782
3.075,-0.37344634532928,0.00724478252232,11.04199504852295,0.0014826503084317663,-0.039882913757349064,-0.005387879692339364
3.0833333333333335,0.4522240459919,0.47968000173569,9.84903430938721,0.0077700008255637805,-0.05770557007572952,-0.009491377128177141
3.091666666666667,-0.05223907530308,-0.20522467792034,9.07782173156738,0.013221808347483922,-0.05258278830425869,3.822300979254422e-05
3.1,-0.09842576086521,-0.11923839151859,8.8892650604248,0.002790726766368382,-0.05719011524674466,-0.002712715912077806
3.1083333333333334,0.03659345954657,0.28673672676086,8.63872337341309,0.0036676204089527925,-0.03216343132915868,0.0015982135546127208
3.1166666666666667,-0.46849691867828,0.081249140203,9.01010036468506,0.009379836451584012,0.0043142824749281775,0.010390622598566733
3.125,0.89688783884048,-0.0810417085886,9.42749691009521,0.006010847166768613,0.0002925960018931615,0.004455551207337899
3.1333333333333333,0.95180022716522,0.20300483703613,9.22902679443359,0.0037232789152894037,0.00013925692746720022,0.006748037724381078
3.1416666666666666,-1.39284467697144,0.03336088731885,9.33107757568359,0.01039285923776353,-0.0017998343547062483,0.003016041377785133
3.15,-0.43233799934387,-0.10201954841614,9.30334854125977,0.005016603307314654,0.039136562861854296,0.0008616941838151803
3.158333333333333,0.17919221520424,0.07361156493425,9.80623435974121,0.0018523628665390057,0.03453683425085347,-0.0003169603823547496
3.1666666666666665,0.04406867548823,0.22955618798733,10.01909351348877,0.008236722407343364,0.011754132988660161,0.00012673944453992381
3.175,-0.26673665642738,-0.01404103077948,10.23339366912842,0.006349042617776232,0.022668252954644356,0.0016970120196797243
3.183333333333333,0.30129206180573,-0.08590538054705,10.38484668731689,0.004024591925868449,0.014613928993944413,0.0036450441370049665
3.191666666666667,0.92481976747513,0.144680544734,9.87048149108887,0.008022137162212827,-0.004401234164370722,-0.0014421918460315699
3.2,-0.27878218889236,-0.02754548750818,9.88015174865723,0.007728424823788011,-0.011829462996806652,0.0022730394593759454
3.2083333333333335,0.40888512134552,-0.08741489052773,9.37566757202148,0.005546806431133115,-0.02000292596558487,0.00116121950850112
3.216666666666667,-1.3227037191391,0.08834476023912,9.43880558013916,0.007089138725749732,0.0026521404405487467,0.002771503372621055
3.225,0.40095975995064,-0.036336440593,9.5741662979126,0.008113782152927912,0.01624746103203126,0.008086960167621138
3.2333333333333334,0.96831625699997,-0.19779767096043,9.81379985809326,0.005937084366505898,-0.005493384563993125,0.0012314066769038433
3.2416666666666667,0.09124984592199,-0.05434443801641,9.76342582702637,0.004284329714894637,-0.030647252108684596,-0.003754795242166285
3.25,-1.31106638908386,-0.03769565373659,9.93633460998535,0.008772293465233998,0.0037849721862681656,-0.0038799708354068374
3.2583333333333333,0.45272490382195,-0.21070845425129,9.69522762298584,0.00465001866311666,0.0256015917373122,-0.006810401466970078
3.2666666666666666,0.71288812160492,0.0770361199975,9.78769302368164,0.005101095733938061,-0.015041537997956756,-0.010650138284119363
3.275,-0.55261433124542,-0.03483434394002,9.57483100891113,0.006958152291861239,-0.0033435069423577556,-0.008979054634365052
3.283333333333333,-0.85241854190826,-0.06989010423422,9.61430931091309,0.005887907952650552,0.011681711651766883,-0.005855943257637165
3.2916666666666665,0.42030820250511,0.0914204865694,9.69411182403564,0.003587374475911421,0.015322955062583276,-0.0097301024721728
3.3,-0.15952984988689,0.13914425671101,10.23736381530762,0.006532111015881105,0.016458468694744172,-0.006196150643624457
3.308333333333333,0.90486323833466,0.08750072866678,9.76560497283936,0.006335407441054329,-0.004559490951702669,-0.0024109553135851676
3.316666666666667,0.78976684808731,0.03622199594975,8.95903587341309,0.0052168823839644435,-0.013191186156137357,0.006299197292756474
3.325,-3.38079690933228,0.2000408321619,9.83711624145508,0.008331498172785216,-0.03231699377492087,-0.0006392853828339427
3.3333333333333335,1.97238636016846,-0.09755048900843,9.50371646881104,0.005029566972128752,0.08496975247563214,0.01294061286618252
3.341666666666667,0.63231134414673,0.20150274038315,10.25051784515381,0.006102045869941627,-0.013309205804319752,-0.001823975103757305
3.35,-0.69586431980133,0.1665253341198,9.89977741241455,0.006181622371669976,0.009991405388488155,0.004062592165746726
3.3583333333333334,0.24246707558632,0.19929966330528,9.64065933227539,0.006329595820183478,0.008319874410894554,0.010490762657040322
3.3666666666666667,0.31006866693497,-0.22285413742065,9.96535491943359,0.0054050914111813215,-0.009940218600098963,0.0028027970758754206
3.375,0.39590987563133,0.29195734858513,9.45167922973633,0.0050246489666392604,-0.017078753242434554,0.006632697361896768
3.3833333333333333,-1.36780977249146,-0.07573408633471,9.54839420318604,0.0045749138793359035,-0.009506575871742034,0.005858848807998374
3.3916666666666666,0.0071386299096,0.10995380580425,9.48154258728027,0.005843202736594015,0.019525697901215718,0.007156196289760058
3.4,0.49036315083504,-0.10909516364336,10.17887496948242,0.005137306402384701,0.0051949758034039424,0.010182295781998077
3.408333333333333,1.09143102169037,0.0595904700458,9.87640380859375,0.005953177765749371,-0.02282383149657544,0.004525739025926558
3.4166666666666665,-1.6885359287262,-0.229377374053,9.93682956695557,0.006994810808295952,-0.005102660341078444,0.002632470239110739
3.425,0.38161137700081,0.0195490270853,9.84253978729248,0.005218222807036485,0.01863651210572484,0.0071074677238927835
3.433333333333333,1.24490225315094,-0.0936164110899,9.65458583831787,0.002513553854654807,-0.009631304397217428,0.005404196755502743
3.441666666666667,-1.05244088172913,-0.08487563580275,9.7299919128418,0.0075661446866451525,-0.028099499520562825,0.0007825659201863589
3.45,0.04853181913495,-0.12044666707516,9.43564414978027,0.007073044806357476,-0.0019728438581353208,0.0035681518623870067
3.4583333333333335,-0.64913481473923,-0.04351074248552,9.79506778717041,0.006014871036728133,0.00832568603176558,-0.0037333372898167706
3.466666666666667,0.45974922180176,-0.03694438934326,9.66249656677246,0.00686158877550788,0.001398157361659751,-0.004167425525492857
3.475,0.52345961332321,0.02867594175041,9.7672004699707,0.006051529033014237,0.00499559034213569,-0.004667677709797908
3.4833333333333334,-0.55194914340973,0.05534845218062,9.78717231750488,0.007608614303802284,-0.02260879788330839,-0.00926472027316804
3.4916666666666667,-0.6983927488327,0.00984657835215,9.71868991851807,0.004461139164289368,0.03347933043268592,-0.005661475801858403
3.5,1.16429722309113,0.16480898857117,9.97268676757812,0.005181564290601773,0.00900699493927031,-0.00883465512722839
3.5083333333333333,0.6033923625946,0.10129141062498,9.55862998962402,0.0066809801603705775,-0.016580740037995215,-0.0025803885349684878
3.5166666666666666,-1.58733010292053,0.13568203151226,9.62079524993896,0.005794920978417424,-0.006574358009415897,-0.007907022024094249
3.525,0.34579703211784,-0.00140195724089,9.64532947540283,0.005899978002083288,0.019049139788308196,0.0004870638802925803
3.533333333333333,0.2489333152771,0.02607220597565,9.72352504730225,0.004987990970353156,0.006860247312138445,-0.001656330283471252
3.5416666666666665,-0.03365412726998,0.03796013817191,9.80756378173828,0.004222189636225194,-0.006438006242198448,-0.0008967877680164546
3.55,0.19876320660114,0.17521603405476,9.96543407440186,0.007434263076929298,0.0022426398916517236,0.008870196884510791
3.558333333333333,-0.10648437589407,0.0339330881834,9.92127895355225,0.006020906321518892,-0.015331227506719267,0.0039881575935020765
3.566666666666667,-0.03776749223471,0.06916807591915,9.67498588562012,0.005526018690319708,-0.0008699647424122896,0.009766315221214223
3.575,-0.05182965099812,-0.01034277770668,9.85641002655029,0.005803638149649661,-0.008958042709483131,0.005771897638704439
3.5833333333333335,0.70460510253906,0.0535890981555,9.44059371948242,0.004831522454081325,-0.020720893389524316,0.0010203977788378082
3.591666666666667,-0.70012104511261,0.16515406966209,9.77767467498779,0.005575865055636685,-0.032046526879682596,0.0012711944076193226
3.6,-0.52659946680069,-0.03066423721611,9.66873359680176,0.004961167424600383,0.007935857504826869,0.006911211476905298
3.6083333333333334,-0.03539923578501,0.10058356076479,9.59734916687012,0.005760050733042827,0.008826832091526297,0.007071256015148751
3.6166666666666667,0.96323043107986,-0.13023896515369,9.82383632659912,0.004427163054444742,-0.007137644147846056,0.007523450365271246
3.625,-0.06931812316179,-0.08559107035398,9.67334651947021,0.0052928807831265625,-0.011312221977356287,0.002909642890749834
3.6333333333333333,-0.90920501947403,-0.09770068526268,9.32824420928955,0.004896792267180144,-0.0014564978844751667,0.0016458247111419226
3.6416666666666666,0.12679129838943,0.0137835284695,9.31909561157227,0.007927362957216974,0.024427187630857623,0.009454495467971481
3.65,0.06021263077855,-0.14415124058723,9.88902759552002,0.005130600645983704,0.008402579606755063,0.0029279718888928865
3.658333333333333,0.84467923641205,-0.12418086081743,9.48692417144775,0.0038900297300826386,0.013015270842272596,0.005962119121049948
3.6666666666666665,-1.03172612190247,0.01085086259991,10.04155445098877,0.006189221743452336,0.008422250068267549,0.001983349430464825
3.675,0.81926518678665,-0.10473192483187,9.80533885955811,0.005784638679896195,0.02180387824977797,-0.0010139155563193905
3.683333333333333,-0.18861331045628,0.07028383761644,9.8710880279541,0.004317411689209119,0.0007767541042596035,-0.002757868195899153
3.691666666666667,0.30215039849281,0.03431218862534,9.64105224609375,0.004323670637919436,-0.0017466352412257513,-0.0031843570597928804
3.7,-0.7629576921463,-0.0472659766674,9.86686038970947,0.006434877548066116,0.00027001984372771316,-0.009447342383731018
3.7083333333333335,0.02044997736812,-0.01015703659505,9.56531810760498,0.004133226011802977,0.005773909573684286,-0.0058532618913442955
3.716666666666667,-0.78218483924866,0.05246610194445,10.02005958557129,0.005681593591210179,0.016011642278694026,-0.008955807110583726
3.725,1.53791844844818,0.14123287796974,9.94057083129883,0.004179271911005861,-0.001144007919696314,-0.005365973631927647
3.7333333333333334,-0.41168189048767,0.04436193034053,9.95785903930664,0.006212468226936271,-0.024402821787478157,-0.005448678827788155
3.7416666666666667,-0.06807364523411,0.18051648139954,9.59909439086914,0.003984804195152795,-0.014963301399151838,-0.005222470340915738
3.75,-0.32031857967377,-0.0157434027642,9.77447319030762,0.007786541552646543,-0.0018092226477344842,0.00019156211672788085
3.7583333333333333,0.74305152893066,0.07193618267775,9.37616729736328,0.004500255903245826,-0.014681657549713758,-0.0011055613922759649
3.7666666666666666,-0.76830101013184,0.10463164746761,9.66004943847656,0.004522608771348398,-0.011538877792067994,0.003089358150580079
3.775,0.68607211112976,0.19794061779976,9.63665294647217,0.005859744503974345,-0.008135018782026781,0.007253207133952707
3.783333333333333,-0.8901355266571,-0.10916668921709,9.66932773590088,0.006305902529008688,-0.003944793320666366,0.003623138336667379
3.7916666666666665,0.14331436157227,0.14360763132572,9.44238948822021,0.0038395126330809455,0.010286907038270478,0.007250077399523156
3.8,0.22271105647087,-0.11576846987009,9.66137981414795,0.005357703268386091,0.009042758279877485,0.0035744100308744103
3.808333333333333,0.465013474226,-0.01183080207556,9.65130996704102,0.0037501022009678734,-0.012471430461137802,-0.00035898338687675356
3.816666666666667,-0.86526525020599,0.01845427416265,9.79250812530518,0.004191789808426495,0.005887907952650552,0.0009528928869881935
3.825,0.30011180043221,0.15530966222286,9.89262390136719,0.008233593713211206,0.0027916206418240478,-0.0002673375184108038
3.8333333333333335,-0.37576743960381,-0.19808368384838,10.07424259185791,0.0041439551180148864,0.014518260133269805,0.0068808124293296856
3.841666666666667,0.61013752222061,0.08188574761152,9.57199192047119,0.0034443177325158883,-0.005173293406911783,-0.0024243668263873373
3.85,-0.56561106443405,-0.12275709211826,9.94970512390137,0.006748484532071759,0.0015470258559634625,0.0011509372099798914
3.8583333333333334,0.7080169916153,-0.01535000093281,9.65866947174072,0.005441748367170034,-0.013741953876998276,0.0029494303613910094
3.8666666666666667,-1.24437296390533,-0.07815911620855,9.70549964904785,0.003721490384154984,-0.0003495952563948708,0.0033218253260885087
3.875,0.49828851222992,0.03193744271994,9.58611106872559,0.008379556267042076,0.014535919179951054,0.007392463931382755
3.8833333333333333,0.07785189151764,-0.30494710803032,10.00171375274658,0.007638566543687216,0.0009680926708503041,0.004934791726835508
3.8916666666666666,0.7406125664711,-0.01135167106986,9.30692195892334,0.005714898709295784,-0.009470813571431903,-0.003170497959077117
3.9,-1.01470232009888,0.0366726256907,9.62729740142822,0.006911658284595978,-0.0071908428712149225,-0.0019133854058330504
3.908333333333333,0.62857037782669,-0.00570081593469,9.57787132263184,0.008006938938796716,0.013693002687508487,-0.00023738501845156764
3.9166666666666665,-0.24587182700634,-0.01645869202912,9.65201759338379,0.004492656531463292,-0.001413580809441594,-0.008338874400796626
3.925,0.03717325627804,0.15009507536888,9.51015377044678,0.005769438896034085,0.015221921388728325,-0.0054647722270316276
3.933333333333333,0.3539941906929,-0.06170757487416,9.88188171386719,0.007344405837125719,-0.008895902630813864,-0.0076982478796861304
3.941666666666667,0.21441361308098,0.13209870457649,9.58931541442871,0.004899474153621621,-0.003476281647306364,-0.004134343551178375
3.95,-0.8490783572197,0.10247185826302,9.55404472351074,0.006838788579566018,-0.012788390323343942,-0.0077040595005571574
3.9583333333333335,-0.25617191195488,0.0666287317872,9.87157440185547,0.005544124024543029,0.024994492957909648,-0.0021038300319495087
3.966666666666667,0.89562916755676,0.00980645883828,9.76991844177246,0.006873882488860348,-0.003010005832920069,-0.0039398755752510055
3.975,-0.532679438591,0.07413923740387,9.89347648620605,0.006967315750635373,-0.005780837953707623,0.0007894950804327843
3.9833333333333334,0.37209796905518,0.08897425234318,9.56474685668945,0.005525795546548586,-0.0014073218607312773,0.0007597661793745296
3.9916666666666667,0.34903728961945,0.00997821614146,9.89107322692871,0.0064865116642946,-0.0186295837257015,0.005135965459163875
4.0,-0.12084728479385,0.12106186896563,9.58984470367432,0.008256840716843749,-0.017321058249442443,0.004231130211302684
4.008333333333334,-0.91403305530548,0.0581883341074,9.41636562347412,0.004442586502226584,-0.003241579393047137,0.0007552955017243282
4.016666666666667,-0.15330693125725,-0.00067250570282,9.66458606719971,0.005865108276857299,0.02383484026718067,0.005346080026644211
4.025,1.41366636753082,0.09582664072514,9.74520492553711,0.004052756414841874,0.0037514434042630034,-0.00045241739636566646
4.033333333333333,-0.62806969881058,0.0370874889195,9.76461029052734,0.006199056714134276,-0.019688202742575527,-0.003402965394659851
4.041666666666667,-0.5991650223732,-0.0166446659714,9.30635643005371,0.004316070745988293,0.01314491373219722,7.979891404036217e-05
4.05,0.05782356858253,-0.03654388338327,9.93468284606934,0.00683565988543386,0.012460478211154943,-0.00022620868192814558
4.058333333333334,0.22036477923393,-0.1625412106514,9.89768886566162,0.0035086934100847364,0.015607280798462835,0.000304219373672368
4.066666666666666,0.15636114776134,-0.12318626046181,9.45340442657471,0.004352506378726362,-0.002335403722113729,-0.0063226674401599655
4.075,-0.4076047539711,-0.02968429774046,9.95858097076416,0.0043822346946172566,0.009668633385262554,0.003273990895751206
4.083333333333333,0.50034821033478,-0.14655457437038,9.78914356231689,0.007266618646754875,-9.92457035056419e-05,-0.0023184154071171983
4.091666666666667,-0.21040087938309,-0.08599147945642,9.83545207977295,0.005619229328472395,-0.016255731395572643,-0.003359153793984851
4.1,-0.76773607730865,-0.08324478566647,9.6177339553833,0.00725812409914498,0.004021015643822522,0.004063038713363102
4.108333333333333,0.34340086579323,-0.05045605823398,9.78847980499268,0.005482878601552339,0.01522371174038305,-0.003012241431819474
4.116666666666666,0.51943945884705,0.03194459527731,9.94011306762695,0.005950495879307893,-0.00040100632638018143,-0.005318586529429633
4.125,-0.09061937779188,0.04706577956676,9.44534206390381,0.0066277803967044946,-0.018692615339157698,-0.001780164023230914
4.133333333333334,-0.47738808393478,0.07358867675066,9.59874248504639,0.006916128962246181,-0.008924066599638679,-0.0052318585039068215
4.141666666666667,0.26350358128548,0.00837597902864,9.66788959503174,0.005847226086404928,0.006418111596617622,-0.004610901924160203
4.15,-0.04670806601644,0.06680040061474,9.76907348632812,0.0063738537084005505,0.0017191412238625645,-0.007293665336278598
4.158333333333333,-0.00499268434942,0.11735669523478,9.78232860565186,0.004958485538158906,-0.004418222219292948,-0.008038902593512712
4.166666666666667,-0.41441425681114,0.03354670852423,9.72990417480469,0.004330823722159723,0.006694838480863429,-0.0008663882653108093
4.175,0.57318592071533,0.15264166891575,9.66017913818359,0.006916128442097571,0.002840796535530785,-0.0007282488122004312
4.183333333333334,0.34647655487061,0.07017654180527,9.88239669799805,0.008002021453455835,-0.01838415054471006,-0.002525848088155883
4.191666666666666,-0.59494489431381,0.0084260487929,9.59523105621338,0.006280196782705791,-0.015608845405603219,0.0019290325175346254
4.2,0.04695108160377,0.0473376698792,9.53513336181641,0.005765862353913854,-0.005000284683705449,0.003585586724999914
4.208333333333333,-0.1101466268301,0.11108364909887,9.86690330505371,0.007565696838657254,-0.003752560683564097,0.004483268368472209
4.216666666666667,-0.06186465919018,0.00366956437938,9.66102409362793,0.004517244478316662,0.0025126599791991406,0.007059185965716017
4.225,0.45211690664291,0.07418213784695,9.64948558807373,0.0044618101560483904,0.0016529776653450576,0.0069845285097747236
4.233333333333333,0.20909908413887,-0.05933297425508,9.62410640716553,0.005964353679652136,-0.015523906171289304,0.004018333237232437
4.241666666666666,-0.49660047888756,-0.07514058798552,9.43286228179932,0.004505173908735317,-0.005102659820929836,0.0006122386933102201
4.25,0.45204538106918,-0.00190980907064,9.50684356689453,0.003547139677430781,-0.0009714455490508029,-0.004624313436962198
4.258333333333334,0.24526382982731,0.04692980274558,9.77497482299805,0.005392796657531812,-0.017317034379482923,-0.0033953652426545787
4.266666666666667,-0.70678669214249,-0.12374418228865,9.53167819976807,0.005758038798063154,-0.00377312502053225,-0.0048442634952729074
4.275,-0.38467988371849,-0.00315413391218,9.64153957366943,0.005006766776186889,0.020620976994970456,-0.005728980173559583
4.283333333333333,0.63397079706192,-0.03504893183708,9.80073928833008,0.005576312383476149,0.011211859295260532,-0.003394471627273042
4.291666666666667,-0.31504663825035,-0.13555324077606,9.71106433868408,0.005220457885787282,0.004458233093779551,-0.007476509550315305
4.3,-0.10210683196783,0.02225249446929,9.60019493103027,0.003112157566299028,0.012091658488205977,-0.005522889476038768
4.308333333333334,0.56752783060074,0.00197422807105,9.91350269317627,0.00787438633732184,-0.002587094031295181,-0.0023139444693925184
4.316666666666666,-0.2368950098753,-0.20889163017273,9.84314918518066,0.006444936182667788,-0.013567156882732,-0.001471250600572292
4.325,-0.53743600845337,0.01329713501036,9.70712280273438,0.005460525213301158,0.0011115965470293973,-0.003309531092587433
4.333333333333333,0.34003159403801,-0.02934838831425,9.89258766174316,0.005841414465533901,0.008143289145568163,-0.003924228723623909
4.341666666666667,0.27340310811996,-0.02596482075751,9.87792587280273,0.004145743389075003,-0.010686347912268612,-0.00774831738877423
4.35,-0.57426601648331,0.07054848968983,9.68908405303955,0.005022413887888464,-0.006318196762509764,-0.004605537110979856
4.358333333333333,-0.35062521696091,0.09871638566256,9.59101867675781,0.005440408984395383,0.0076488493623570524,-0.006464382460111759
4.366666666666666,0.57953733205795,0.0127818044275,9.6549129486084,0.004612467051449195,0.006856224482476317,-0.005651640311027855
4.375,0.04003446176648,0.12072568386793,9.6797924041748,0.0031586510534155053,-0.01504019497414132,-0.005853708178886368
4.383333333333334,-0.13117597997189,0.14740578830242,9.54913806915283,0.007281817910468377,-0.005118753740322092,-0.0012186657657492384
4.391666666666667,0.04409727826715,0.02813928388059,9.7429084777832,0.004781899752683907,-0.000967422134221315,0.0014124628799547392
4.4,0.50671452283859,0.13612575829029,9.63309860229492,0.0037939132814944388,-0.006521606093737537,-0.002541942007547964
4.408333333333333,-0.12557537853718,-0.00128027203027,9.6212043762207,0.007981903143955275,-0.019204042136993817,0.002159041080409679
4.416666666666667,-0.4681678712368,-0.07497610151768,9.39847087860107,0.004695841678622898,-0.0003889358543267889,0.0038938291558995143
4.425,-0.35305717587471,0.01509249862283,9.56427383422852,0.00490573362248072,0.01596224376136495,0.0027424450081917893
4.433333333333334,-0.02841824479401,0.03588581457734,9.63472938537598,0.006299195732310473,0.020475239665504966,0.00982957153888737
4.441666666666666,0.47567826509476,-0.01657360233366,9.66876411437988,0.004488632661503772,0.012860141708775592,0.007938091543280274
4.45,-0.00701693911105,0.069933347404,10.08072376251221,0.0028774547918911935,0.004838227690333714,0.0036195623146957575
4.458333333333333,-0.10224989056587,-0.05000552535057,9.80765628814697,0.005751110418039642,0.0007190844431660573,0.005165471411506909
4.466666666666667,-0.34832215309143,0.04388963058591,9.66408538818359,0.004556137553353561,0.008496013388678872,0.0029646304053275994
4.475,0.12932327389717,-0.01475644018501,9.74970245361328,0.004818557748969836,0.0061471978936888435,-0.0012074894617351917
4.483333333333333,0.29711475968361,0.01074362453073,9.69941997528076,0.00695144705560885,-0.009867348895069001,0.0010271037302947087
4.491666666666666,-0.32552596926689,-0.15399345755577,9.80174732208252,0.00619056320682177,-0.014854669393811921,-0.003335013695119555
4.5,0.14566048979759,-0.03073576651514,9.83994388580322,0.006802577390970769,-0.00855703566789861,-0.0032840492702783984
4.508333333333334,0.22759647667408,-0.15283499658108,9.82697010040283,0.006608556742882688,-0.010923286025501721,-0.004594360676928658
4.516666666666667,-0.2962421476841,-0.01535000093281,9.59814262390137,0.0047447944285585126,-0.00998537062384618,-0.006666450327970271
4.525,-0.31710743904114,-0.0786312147975,9.55609130859375,0.005461643012750861,0.00020206780283976215,-0.004785252110735797
4.533333333333333,0.56676268577576,0.01144454907626,9.50670051574707,0.007818505207362714,-0.0032350970404913925,-0.0035346223001587566
4.541666666666667,-0.34797877073288,-0.10475329309702,9.44885444641113,0.0074020757582935704,-0.007495733204136937,-0.0012968998938480893
4.55,-0.2494267821312,0.05519849061966,9.42941379547119,0.0060197885220690155,0.005327751028501159,-0.002715398058593588
4.558333333333334,0.07119224220514,0.04775238037109,9.84328460693359,0.008222864086850513,0.015145027813738844,-0.004865275420154829
4.566666666666666,0.11187741905451,0.09056186676025,9.89695167541504,0.0055253476985606875,0.008171452074095762,-0.0038160417054541916
4.575,0.00462788948789,0.12008192390203,9.72400379180908,0.006194139228793393,0.003830571277780368,-0.007185478058034751
4.583333333333333,0.68225961923599,0.02547842636704,9.59613227844238,0.003708078871352989,0.0026619754112306854,-0.006394642489511347
4.591666666666667,0.03226631134748,-0.01087197288871,9.66193771362305,0.005469019760910881,-0.012042705218121756,-0.006548428079044485
4.6,-0.19460739195347,0.10928113758564,9.60546016693115,0.005900425329922577,-0.012808060264707644,-0.0061366924513964905
4.608333333333333,-0.30131360888481,0.06415390223265,9.63443565368652,0.007304170778570951,-0.003119980862075424,-0.0015038852470474844
4.616666666666666,0.17110314965248,0.1117202565074,9.63983631134033,0.0073868764945800676,-0.0014256513790229378,0.0007602132471395148
4.625,-0.30434608459473,0.0083259511739,9.56653499603271,0.007352228872827811,0.0013657461190299868,0.0037807246523889134
4.633333333333334,0.0796182975173,0.07377441972494,9.51469039916992,0.0054734899184124735,0.007457509560413231,0.0039472520633367205
4.641666666666667,-0.01715967059135,-0.01355463732034,9.78307247161865,0.004631689664973609,0.011495290375461334,0.004316517553678974
4.65,-0.01527132000774,0.11059010773897,9.69506359100342,0.003120204525995156,0.011193530297117478,0.011189058059021277
4.658333333333333,0.01557190902531,0.03318957984447,9.8475980758667,0.003273990635676902,0.007424875954235431,0.011703617192030167
4.666666666666667,-0.09808693826199,-0.0452202744782,9.87204647064209,0.005199447001202753,0.003646832408064908,0.0056076060867305145
4.675,0.01160859968513,-0.11049021780491,9.61746978759766,0.004316965661741351,0.0021930174503286097,0.006144964375383872
4.683333333333334,-0.12056116759777,-0.04732320830226,9.84101009368896,0.005667957894339843,-0.00040726504752556906,0.004209224671039401
4.691666666666666,0.19814822077751,-0.05800969526172,9.83744239807129,0.0054202906748948235,-0.004731158731688177,-0.0016192249593460332
4.7,-0.0452202335,-0.03623634949327,9.73988246917725,0.005338480654861677,-0.0060106240229976645,0.0008326358844044908
4.708333333333333,-0.01920539326966,-0.00887665804476,9.77752113342285,0.00546544269864204,-0.010521385888684277,-0.000415759009968106
4.716666666666667,0.07742947340012,-0.10018263012171,9.81503772735596,0.0061503271079696095,-0.01014675610531046,-0.002195923000689819
4.725,0.13684096932411,-0.11667703837156,9.72755718231201,0.005766756489443825,-0.016666125559851197,-0.0036989141122071583
4.733333333333333,-0.38604593276978,-0.04323221370578,9.6343297958374,0.00624063271590987,-0.01291356409606419,-0.007304394442490507
4.741666666666666,-0.0132112428546,-0.03856820985675,9.70155906677246,0.006203080584093796,-0.008240970981519834,-0.0011091378043590436
4.75,-0.03316773101687,0.0192411467433,9.60273456573486,0.007368322792220066,-0.0056433699474864735,-0.001750881864844764
4.758333333333334,-0.21904864907265,-0.08515460789204,9.49996185302734,0.005073377532506533,-0.0029858652139059904,0.00029930179080353444
4.766666666666667,0.13606138527393,0.01032155193388,9.60646820068359,0.005809673434440245,9.097521805440894e-05,0.002998159187332762
4.775,0.09968917071819,-0.04140780866146,9.58431625366211,0.006321549640710263,9.857513436745211e-05,-0.002153006185730551
4.783333333333333,-0.0294554065913,0.12686282396317,9.58297824859619,0.004700982827883514,0.005236104997488857,-0.006466170731171874
4.791666666666667,0.15890756249428,0.12428779900074,9.68906211853027,0.00561609959404302,0.006726578471659867,-0.0008520824869415169
4.8,0.02723087370396,0.00736027536914,9.70935440063477,0.006879694629879983,0.003368095409359733,-0.009185144811737085
4.808333333333334,-0.01375515107065,0.07694274932146,9.69810390472412,0.003240461853671739,0.005089919299886688,-0.00820788744675935
4.816666666666666,-0.02111519314349,0.02984881401062,9.76737117767334,0.004780335145543523,0.007217665896819088,-0.007841304883155967
4.825,-0.08791559189558,0.08777253329754,9.80412292480469,0.005271198906783011,0.005849684829075456,-0.0075632386161353345
4.833333333333333,-0.14336422085762,0.09353091567755,9.80951690673828,0.0048382282104823225,0.007519204391837994,-0.00498553170753402
4.841666666666667,-0.02853245288134,0.09295140206814,9.87352752685547,0.006333171842154925,0.0054748308616332985,-0.004238953767153384
4.85,-0.03733796998858,-0.04944767057896,9.81571102142334,0.00357128029644486,0.0018581746174471847,0.0010271036652761325
4.858333333333333,0.12855829298496,0.01655164919794,9.6577615737915,0.00727220660370617,-0.000865046996997103,0.003700255575576593
4.866666666666666,0.18179665505886,-0.0087479269132,9.58156967163086,0.006755636576014828,-0.009547705065826948,0.004809169585978752
4.875,-0.43106630444527,-0.01804644986987,9.38650417327881,0.0072319715451512265,-0.005671310772540342,0.0074094514661563705
4.883333333333334,0.03062831051648,-0.00683118775487,9.28674411773682,0.006586874866539138,0.008895901590516469,0.0058653319407770315
4.891666666666667,0.16578143835068,-0.05589946731925,9.31564044952393,0.005883885122988249,0.013500324022938624,0.0021872058294575827
4.9,-0.16807755827904,-0.13868659734726,9.29478454589844,0.004631242857282928,0.021201250668174233,0.0026668928965715676
4.908333333333333,-0.00553794298321,-0.03350716084242,9.44155979156494,0.004793970322265251,0.03348536831821973,-0.0004734288661173804
4.916666666666667,0.55751395225525,0.026157874614,9.54015350341797,0.005215094112904327,0.026094694738491707,-0.0028749963092949693
4.925,-0.22372660040855,-0.10562602430582,9.79200458526611,0.00530584600838666,0.02480047335011896,0.0002930431021675221
4.933333333333334,0.39879953861237,-0.13094007968903,9.73044776916504,0.003883546857378285,0.021902007413568934,-0.005383855822379843
4.941666666666666,-0.31396690011024,-0.04204441234469,9.88336181640625,0.00554121847418182,0.012779896295882826,-0.007127584993095777
4.95,0.0975077599287,-0.12779951095581,9.74508285522461,0.005695228247783297,0.009419176334311592,-0.007932503586328979
4.958333333333333,-0.23775334656239,0.07206489145756,9.91453456878662,0.006013082245519409,0.008137923812239208,-0.005823308611161973
4.966666666666667,-0.21271853148937,0.06280190497637,9.89101409912109,0.007661366219480469,0.0024527549792804945,-0.00192724424647451
4.975,-0.18296256661415,-0.04228045418859,9.84492969512939,0.005074495331956236,0.015511835601707961,-0.0007908362187091638
4.983333333333333,0.15385049581528,0.06894624978304,9.86535835266113,0.004316070745988293,0.010556479277829822,0.0008326356243301864
4.991666666666666,-0.03745942935348,0.06315244734287,9.93873310089111,0.004050521336091077,-0.005425431824155439,-2.7717266789387056e-05
5.0,0.19897073507309,0.12074717879295,9.62191963195801,0.0058597439838255615,0.0019475851795972348,-0.0009741279556410633
5.008333333333334,0.06409659981728,-0.01761027984321,9.77468776702881,0.0059196484635956,-0.008342450422768075,-0.000294160674052121
5.016666666666667,-0.22529309988022,0.1092167571187,9.71368217468262,0.00704175110310311,-0.010306353315714448,-0.0016076015875668265
5.025,-0.51953959465027,-0.14483791589737,9.71443367004395,0.007064998626884436,-0.00800537329135894,-0.007997326591737117
5.033333333333333,0.17553114891052,0.08022624999285,9.89620304107666,0.005037613671750575,-0.0005914507574409115,-0.002107853511797573
5.041666666666667,0.35328617691994,0.06386033445597,10.02321434020996,0.006305678865089131,-0.012231138429406974,-0.009044994919074283
5.05,-0.00631599407643,0.04612879082561,9.81113815307617,0.007951054687945762,-0.02604752349768377,-0.003757031101139994
5.058333333333334,-0.27154338359833,0.04589979350567,9.72321701049805,0.009532282658342323,-0.01941818317517672,-0.004665442631047112
5.066666666666666,-0.23318995535374,0.02684481628239,9.83932113647461,0.0076828254722016796,-0.013867129730312958,-0.0060714231584462815
5.075,-0.4457366168499,-0.07204340398312,9.63927745819092,0.006255831979623372,-0.0057973797210879524,-0.0005082989164362494
5.083333333333333,-0.24504914879799,0.12717741727829,9.79399490356445,0.004737641344318051,-0.005242587089970122,-0.001261135773017826
5.091666666666667,0.59670448303223,0.01147316023707,9.94408988952637,0.005034037129630344,-0.008042478095335726,0.004221295500695224
5.1,-0.0380173586309,-0.00625158473849,9.79465293884277,0.005552394908233194,-0.026899608130238468,0.0023832378923767275
5.108333333333333,-0.31007573008537,-0.09164222329855,9.63274097442627,0.006772848294856786,-0.024271607008332103,-0.0016373304236065053
5.116666666666666,-0.04235198348761,-0.14529569447041,9.54826545715332,0.007702494373267991,-0.010714066633848747,-0.0004577819819809092
5.125,0.66346883773804,-0.14259155094624,9.52924537658691,0.007437392811358847,-0.018673840053472574,-0.009398390153944013
5.133333333333334,0.21871739625931,0.0647903457284,9.42751884460449,0.006583074660499349,-0.02882908914594693,-0.009030017758834512
5.141666666666667,-0.10032573342323,-0.12147688865662,9.39742088317871,0.008926525862457815,-0.026989021683243193,-0.005514395448577654
5.15,-0.4770230948925,-0.12063984572887,9.53361701965332,0.006564745662356297,-0.015065677056524835,-0.010831193706947172
5.158333333333333,-0.00075068284059,-0.00647310493514,9.38439559936523,0.007191289678905603,0.004304223320178073,-0.005915400929716346
5.166666666666667,0.22098024189472,-0.03768822923303,9.54081916809082,0.008681094241912376,0.002922160268021859,-0.008441250058169448
5.175,0.1654667109251,0.01383359823376,9.53739356994629,0.0041882135263807425,-0.004326575928206341,-0.004596596275828062
5.183333333333334,-0.74771523475647,0.00125197891612,9.61440944671631,0.006448065396948555,0.012838683496351597,-0.0035956450995271055
5.191666666666666,0.327163875103,0.11450986564159,9.58513164520264,0.006932222881638437,0.022754314669745975,0.0006162621731582841
5.2,0.45854729413986,-0.05569203570485,9.71163654327393,0.005320151136570016,0.008997605215833052,0.001390557469728783
5.208333333333333,0.2588971555233,0.11607633531094,9.72634983062744,0.0047921820512051355,-0.0038352653592759974,0.0006895788159160782
5.216666666666667,-0.69002044200897,-0.02564294263721,9.83672523498535,0.007212972595546546,-0.001024197919859195,-0.0011037732512530016
5.225,0.22530740499496,0.04059953615069,9.91214466094971,0.006071200014675158,0.006587993186137623,-0.0008306240794617953
5.233333333333333,0.22638033330441,0.08712162822485,9.97290134429932,0.008680200106382232,-0.011833485826468955,-0.00264074060265212
5.241666666666666,-0.7663768529892,-0.02781763486564,9.84433650970459,0.008183969971516396,-0.00946589400549641,-0.004711936118163763
5.25,-0.72118532657623,-0.07766557484865,9.91382503509521,0.0048563330245570335,0.018735531764005334,0.0002530318538240632
5.258333333333334,0.92037755250931,0.09559763222933,9.86369037628174,0.005016155979475365,0.005312104957096977,-0.0016102839941569123
5.266666666666667,0.21552227437496,0.04067832604051,9.99836444854736,0.008653376560629457,-0.020736539460928495,-0.00454965598102073
5.275,-0.43690279126167,0.01705953106284,9.6317892074585,0.0069241761820166125,-0.025149397387189708,-0.0028705253715704637
5.283333333333333,-0.48441913723946,0.04871801286936,9.69502067565918,0.006978715848606305,0.0007946361646748225,-0.0001341158107157867
5.291666666666667,1.13588571548462,0.04524888470769,9.56251430511475,0.007732894461140996,-0.01837789003555374,-0.0002955018123286751
5.3,-0.67756724357605,-0.1477920114994,9.6874942779541,0.006518700023227718,-0.02308446134053716,-0.0008158712333275178
5.308333333333334,-0.38495913147926,0.04186550155282,9.26288986206055,0.005888802088180522,0.002239957745135768,0.0026449873563084594
5.316666666666666,0.37372174859047,0.04733036085963,9.62769794464111,0.005911155476431704,0.0052311875121478,0.006857565425696968
5.325,0.27649313211441,-0.04157232493162,9.44590091705322,0.002871643171020166,-0.0018034106367520002,0.0044340924747654714
5.333333333333333,-0.60953652858734,-0.05214409902692,9.47173595428467,0.0038151478299985257,0.014388393579425625,0.00229651012692822
5.341666666666667,0.87913447618484,0.06733686476946,9.49245929718018,0.007093162595709252,0.00962392764905741,0.0024894132356409024
5.35,0.37351405620575,-0.17161078751087,9.87719535827637,0.006340772254234676,-0.006150998099728632,-0.004507632651405846
5.358333333333333,-0.43145948648453,-0.04878954216838,9.49326705932617,0.003112157566299028,-0.0004215706958577093,-0.008494896109377778
5.366666666666666,-0.35802125930786,-0.06573462486267,9.51205825805664,0.005807885683528738,0.007129819551697964,-0.004220177441171043
5.375,-0.11182754486799,-0.18599537014961,9.78695583343506,0.005247281431540056,0.018956153854372458,-0.008629905372928572
5.383333333333334,-0.09426731616259,-0.10491074621677,9.51846694946289,0.0033522251538872093,0.02047255569846888,-0.009885229525075371
5.391666666666667,0.04449068382382,0.03644373640418,9.7552547454834,0.005388996971640457,0.019224384110413932,-0.009692997148047581
5.4,0.20658126473427,-0.01498520560563,9.96938896179199,0.0056223595830505535,0.01005756933711712,-0.010308142627071954
5.408333333333333,0.28021991252899,0.05519871413708,9.90279006958008,0.004523055058890297,0.006587098530458869,-0.003894275703515891
5.416666666666667,0.14572475850582,0.11810796707869,10.04367733001709,0.006411406360365232,-0.017074285165527572,-0.005775026852985379
5.425,-0.59732675552368,0.01109405979514,10.0610818862915,0.00675988463004269,-0.009910265319916813,-0.0019509380577977335
5.433333333333334,0.02725233137608,0.00479955784976,9.57139110565186,0.006369160927276617,-0.005099754790717235,-0.0033504366227527895
5.441666666666666,-0.09812270104885,0.21236075460911,9.75672817230225,0.006125739681264849,-0.00918022628609881,-0.004280529508854674
5.45,-0.09212145209312,-0.00147347792517,9.75685596466064,0.0054730431107217915,-0.009709985202969808,-3.576421835821469e-05
5.458333333333333,0.58294951915741,0.15654711425304,9.61113929748535,0.006468182146002938,-0.016570456699176592,-0.004753064271951286
5.466666666666667,-0.38860681653023,0.02774587832391,9.79117584228516,0.008310932535445367,-0.026464179211415858,-0.0014627564430740269
5.475,0.03429788723588,-0.01183080393821,9.44011497497559,0.007317805435143894,-0.005725851479427251,-5.051695070994054e-05
5.483333333333333,-0.09158500283957,0.03826055675745,9.62550926208496,0.007732894461140996,-0.010330494454877137,-0.00328986115122373
5.491666666666666,-0.3218922317028,0.04820301011205,9.47173023223877,0.004454657071807928,0.00994625232444372,1.9893845039489207e-05
5.5,0.36339327692986,0.05127168446779,9.19181251525879,0.006623757567042191,0.0031036640589865235,-0.002236604866935269
5.508333333333334,0.06795908510685,-0.00688106426969,9.67080974578857,0.005829791223792021,0.0021800524851428166,0.0006994139816537455
5.516666666666667,-0.04365380108356,-0.05898949503899,9.60691165924072,0.006646780906755178,0.0061183639734022225,0.003147251475593183
5.525,0.04531326144934,0.02344701997936,9.77976703643799,0.005908472549693009,0.003983463772080752,0.0007244489962720993
5.533333333333333,-0.73946803808212,-0.10377344489098,9.86076641082764,0.004662089232698004,0.016416445885277898,0.003367424677675015
5.541666666666667,0.01610181666911,-0.03417674452066,9.67562007904053,0.004842698888132524,0.02988883168390587,0.00621917502363466
5.55,0.59865719079971,-0.06642845273018,9.82990169525146,0.0061199285805426055,0.0092604748198834,0.0029498776892304735
5.558333333333334,0.11699905246496,-0.17010176181793,9.78478908538818,0.005952283110070792,-0.0006710261538532943,-0.0019388676182537162
5.566666666666666,-0.47238805890083,-0.1629274636507,9.94288063049316,0.008441919489482643,-0.009284391254829138,-0.007281594766697254
5.575,-0.1247384250164,-0.03336801379919,9.88656616210938,0.006516463904179704,0.007776705541667386,-0.00975871376883708
5.583333333333333,0.204335257411,-0.02249569073319,10.00304317474365,0.007427110512837619,-0.006455441104811356,-0.012137927791254288
5.591666666666667,-0.24409039318562,-0.0192339848727,9.8148021697998,0.004398328093860903,0.0001522214537773867,-0.009993416283170612
5.6,0.5874770283699,0.14506007730961,9.60626697540283,0.007261477497494261,-0.01542443606427752,-0.012749719351780773
5.608333333333333,-0.08995415270329,-0.11973144114017,9.86589527130127,0.007739600217541992,-0.020475017041882627,-0.012058800697959835
5.616666666666666,-0.19017264246941,0.13624735176563,9.3456974029541,0.006800342312219972,-0.02208842452868526,-0.014061149338103646
5.625,-0.94004064798355,0.06129990890622,9.55867290496826,0.005827108297053152,0.0005116518596553244,-0.007827446042514506
5.633333333333334,0.75470364093781,0.14513118565083,9.45183849334717,0.006460135446381289,0.014795880112748367,-0.0029630657981872155
5.641666666666667,0.28491204977036,0.01387651544064,9.91920471191406,0.007611296190243761,-0.007447451966108953,-0.0021051716253560958
5.65,0.16930064558983,0.01690931990743,9.5051908493042,0.00707460941349786,-0.008050972642945447,0.0026277758975408057
5.658333333333333,-0.20839807391167,-0.02070032805204,9.7014799118042,0.007313112133871353,-0.011736474982276306,-0.0034297886803383204
5.666666666666667,-0.13973763585091,-0.01826095208526,9.6866455078125,0.005357256460695411,0.004485056639532324,-0.003177651303391883
5.675,0.03090743348002,0.10236433893442,9.62697601318359,0.004629901914062276,-0.005958319435158768,-0.001356357956038903
5.683333333333334,-0.15803490579128,-0.02385473065078,9.61545276641846,0.00641766478892694,0.003428670620814314,-0.006422359650645483
5.691666666666666,0.51170724630356,0.0493260063231,9.79661273956299,0.00818888849715467,-0.015834160277094275,-0.0039559697547175655
5.7,-0.45450595021248,-0.05133595317602,9.95427513122559,0.005788438365787375,-0.010261648619806696,-0.0053427276685923215
5.708333333333333,0.09390967339277,0.07851675897837,9.65708923339844,0.00649768705804858,-0.008405038349425591,-0.004175025677498305
5.716666666666667,-0.6311382651329,-0.03226647526026,9.78915214538574,0.005954966556958269,0.006746696781160252,0.0029883239565765183
5.725,0.96323043107986,0.11905191838741,9.53469657897949,0.00605018860994202,-0.0034959521088186755,-0.00163174246665521
5.733333333333333,-0.35542458295822,-0.1572268307209,9.88845348358154,0.006564299894962834,-0.00882392758146248,0.0026431996053969528
5.741666666666666,0.31998240947723,0.02354721724987,9.35081958770752,0.005452479033827944,-0.010201296812197369,0.0011527256110771592
5.75,-0.89528560638428,-0.20374156534672,9.96664333343506,0.0054377255375079045,0.006524957931640818,0.0003592068882499581
5.758333333333334,0.87850499153137,0.10236433893442,9.4987678527832,0.005301151146667943,0.006507299405108179,0.005653875909927434
5.766666666666667,-0.59385758638382,-0.10955302417278,9.69311046600342,0.008395873850354065,-0.008935690881677949,0.0023570858585315844
5.775,0.06509802490473,-0.03539941832423,9.54785823822021,0.0057900034930765416,0.018287810692276436,0.00034177183058132284
5.783333333333333,-0.1671404838562,-0.18035177886486,9.78095436096191,0.006862706574957581,-0.00032813671887817165,-0.00535390410264352
5.791666666666667,0.17626039683819,0.08244375884533,9.5597972869873,0.0035006461903143043,0.01751440790577133,-0.002245545962161542
5.8,-0.6614448428154,-0.0821790099144,9.99818706512451,0.0044562221990969205,0.012916248063100275,-0.009688080703003917
5.808333333333334,1.41139900684357,0.17476540803909,9.77036190032959,0.0044457162366561345,0.010173802794834182,-0.0032558853014535817
5.816666666666666,-0.63409239053726,-0.08608446270227,9.96703624725342,0.008166982956891562,-0.018489653335769216,-0.009738149171794623
5.825,-0.21559384465218,-0.10287218540907,9.64814758300781,0.006108528482571675,0.0024668369636929024,-0.004145296321310017
5.833333333333333,-0.73330235481262,-0.15350031852722,9.7738094329834,0.004569325922384608,0.01303248152081734,-0.009605597610617139
5.841666666666667,0.87272518873215,0.10232105106115,9.61474323272705,0.005615205978661483,0.00955284725538478,-0.009226721333661288
5.85,-0.14138309657574,0.02137984707952,9.83213329315186,0.0079427853647016,-0.005098636471118924,-0.006723672401150049
5.858333333333333,0.61614590883255,0.10000389814377,9.67947769165039,0.006601404698939618,-0.01242538482200922,-0.006412972007803007
5.866666666666666,-0.77040416002274,-0.10443862527609,9.91869640350342,0.008681094241912376,-0.00904074738519503,-0.0004121826303944026
5.875,0.46933391690254,0.08700713515282,9.5299129486084,0.006083716871798574,-0.0042300126719272855,-0.0011578666303006212
5.883333333333334,0.00219592289068,-0.00825438089669,9.72680759429932,0.006205762470535272,-0.0004962285094012584,-0.005005650017034405
5.891666666666667,0.71734434366226,0.21586564183235,9.41097354888916,0.007430239727118385,-0.024175716564332376,-0.002987206157126816
5.9,-1.33914816379547,-0.16436517238617,9.47542858123779,0.007635437849555057,-0.007623589903596053,-0.008479695805367058
5.908333333333333,-0.06670740991831,0.1587001234293,9.55763626098633,0.004870862856957515,0.010255165487028038,-0.00360503300244406
5.916666666666667,0.09864486008883,-0.17165392637253,9.63941478729248,0.004607549045959705,0.023951520012439807,-0.004121379106141366
5.925,0.4745911359787,0.17289136350155,9.68431282043457,0.003345072329721052,-0.000775189432100644,-0.005454937776498471
5.933333333333334,-0.1977975666523,-0.11778586357832,9.95500469207764,0.004447057179876786,0.009640469416437562,-0.0012177716302192681
5.941666666666666,-0.15549565851688,0.15664011240005,9.87489318847656,0.006262538256173152,0.006280866734167422,-0.0037892189399245054
5.95,-0.62142467498779,-0.25135090947151,9.70249557495117,0.004035321552228966,0.01851938295203181,0.0007888245438037952
5.958333333333333,0.31672072410583,0.13317163288593,9.74670696258545,0.006202857440322848,0.020562637122340972,0.0023792148026401203
5.966666666666667,0.6966797709465,-0.11971713602543,9.88228225708008,0.00852417787765247,-0.005472372639111379,0.0006117916255450604
5.975,-0.80662608146667,-0.06738693267107,9.96504783630371,0.007240913420600413,-0.005889919887630225,0.003053369845681475
5.983333333333333,-0.1054826900363,-0.03105757199228,9.77204322814941,0.00348902294857225,0.000861694118796604,0.002355297327397164
5.991666666666666,0.21131643652916,0.0279175452888,10.08083057403564,0.007859187073608338,0.01566696161431314,0.004844710823112371
6.0,1.02033162117004,-0.12607601284981,9.82172584533691,0.007050245130564222,-0.028210817573533612,-0.0028428082104361534
6.008333333333334,-0.63475042581558,-0.12697726488113,9.74736499786377,0.007301935699820154,-0.014678082047890919,-0.004562172838144146
6.016666666666667,-0.16246967017651,-0.01492083072662,9.57923030853271,0.007453933538441784,-0.017510608740028757,-0.009058181727659329
6.025,-0.30556228756905,-0.10123418271542,9.30800151824951,0.006752507881882671,0.004897238554722216,-0.005825096882222088
6.033333333333333,0.16357836127281,0.09067659080029,9.59659767150879,0.005238340076239653,-0.008354968320188883,-0.007113502488534759
6.041666666666667,0.71554893255234,0.06068471819162,9.52888107299805,0.008251028055675503,-0.009848124200949979,-0.006630238619226239
6.05,-1.01081836223602,-0.06727248430252,9.65641689300537,0.006084611007328719,-0.005037390007830843,-0.004460245028759223
6.058333333333334,0.70208728313446,0.06188639625907,9.53247261047363,0.0029825123357054913,0.008785256609899485,-0.008100595344342865
6.066666666666666,0.16765515506268,0.24336834251881,9.8949146270752,0.007494839068606966,-0.0007208724541518685,-0.005059518691865075
6.075,0.51697170734406,0.00713138421997,9.51305961608887,0.008019231611851791,-0.019924693527969172,-0.002341215082910452
6.083333333333333,-0.82653963565826,-0.04557076096535,9.65174579620361,0.007265724511224731,-0.005978435143915935,-0.0016388952908211929
6.091666666666667,-0.62809818983078,-0.05668617784977,9.67928409576416,0.004099249901958525,0.004769829183102562,0.0015041089109672165
6.1,0.4112169444561,-0.01154468860477,9.67891216278076,0.007118197350253302,0.020309382986241874,0.0037451844555526866
6.108333333333333,0.32929542660713,0.02829664759338,9.95432567596436,0.006001235860006405,-0.005434820507295305,-0.004251024336734728
6.116666666666666,-0.1821327060461,0.09776497632265,9.82805633544922,0.006796767330545742,-0.003704726253226794,-0.00231081577526036
6.125,-0.67117983102798,-0.01901952922344,9.94727897644043,0.007437839619049528,0.011963800748449641,-0.0016737654061586378
6.133333333333334,0.71747308969498,-0.020492894575,9.83274841308594,0.004590560991037303,0.00797609152308442,-0.0058850018821407345
6.141666666666667,-0.17013008892536,0.09237865358591,10.02250671386719,0.005888802608329306,-0.0060343173141722784,-0.005640463356828046
6.15,0.04586418345571,0.02698018588126,9.50423431396484,0.007310877055120557,-0.016802923614610717,-0.009294226225510903
6.158333333333333,-1.13402605056763,-0.08991838991642,9.74773693084717,0.006707355858135454,0.008873327139088949,-0.00152757918840786
6.166666666666667,0.21360523998737,0.09368058294058,9.96493911743164,0.005600453002490054,0.01246137078623891,-0.0036291738815322685
6.175,0.84887796640396,-0.05187241733074,9.72759437561035,0.009069357641562093,-0.005545241823992731,-0.0004729817658430199
6.183333333333334,-0.42896315455437,-0.19353447854519,9.87497901916504,0.006964634384342504,-0.014589788895079116,-0.002896678185638521
6.191666666666666,0.02807478606701,-0.04904688894749,9.64665985107422,0.006674720171363044,-0.008407273428176387,-0.004220177441171043
6.2,-0.06546997278929,9.298695659e-05,9.50932598114014,0.003001064737693971,0.007582014942117676,0.004996708661734002
6.208333333333333,0.21937054395676,-0.14189811050892,9.5949878692627,0.005931942176947892,-0.007675224539973146,-0.00031316043638909103
6.216666666666667,0.529181599617,0.01356178987771,9.35908699035645,0.0053045040248686165,-0.0024230256230922073,-0.0008172123065854958
6.225,-0.59587490558624,-0.22062210738659,9.54679203033447,0.007752342299031142,-0.00674513165387126,-0.005800062647826646
6.233333333333333,0.10920960456133,-0.02240985631943,9.40911388397217,0.006963739728663925,0.007164466133152829,-0.009824206725707023
6.241666666666666,0.02932665683329,0.10956009477377,9.69177341461182,0.0031689333519367337,0.010620855995696064,-0.009201685538819847
6.25,0.47451961040497,0.04823877289891,9.87289047241211,0.005906237470942213,-0.00985438366980908,-0.00770897698589804
6.258333333333334,0.08513268828392,0.02632238343358,9.73165130615234,0.006767260858054101,0.0011424431825187787,-0.007528815178451418
6.266666666666667,-1.29367029666901,-0.10675618052483,9.99652004241943,0.0056630404089987865,0.004840016481542438,-0.005512606657368931
6.275,0.84481513500214,0.12597587704659,9.48236656188965,0.004703218426782918,0.019213654484053242,-0.004883156570309807
6.283333333333333,-0.22307609021664,-0.04762338846922,10.03399467468262,0.006051529033014237,-0.003989498536722729,-0.006394641969362738
6.291666666666667,-0.07559839636087,0.04358942434192,9.92745208740234,0.0057144519016049285,0.006955469885271153,-0.0013483111263799274
6.3,-0.51805180311203,0.02703777141869,9.61742687225342,0.007779387948257647,0.0063054546810207895,-4.962285175282095e-05
6.308333333333334,-0.6063894033432,-0.07820203155279,9.97001171112061,0.005172176127610689,0.024442382213233298,0.004539150018579944
6.316666666666666,2.0033323764801,0.19992196559906,9.77842998504639,0.006651026880188429,0.0040563326968878,0.005062648426294624
6.325,-0.94323825836182,-0.12768539786339,10.0292797088623,0.007731554038068952,-0.024228919448890465,-0.004269801182865852
6.333333333333333,-0.43801149725914,0.11135546118021,9.31518268585205,0.005916071921475368,0.0010011745801462096,-0.0014860031866322655
6.341666666666667,-0.18452188372612,-0.02786747552454,9.87565135955811,0.0031568627823553895,0.027151967610658637,0.006001011675938066
6.35,1.35674405097961,0.1388366818428,9.70145797729492,0.008250581247984824,-0.019630530740813237,-0.006250243502523467
6.358333333333333,-0.66228884458542,-0.14799958467484,9.67797565460205,0.005845437815344813,-0.007375028548621063,-0.0010586209024129043
6.366666666666666,-0.89946299791336,-0.13060393929482,9.88485717773438,0.007401852094373837,0.006356641989558592,-0.0059178596723868755
6.375,0.93062078952789,0.08152831345797,9.7520227432251,0.004535572956311105,0.01299157599065198,-0.003989051729032047
6.383333333333334,0.48140075802803,0.060691755265,9.88568115234375,0.007377041003749521,-0.016029971276836905,-0.0034588473048420654
6.391666666666667,-0.32375398278236,-0.05131173506379,9.7433032989502,0.008616494900423795,-0.029433508119502613,-0.007107692428109733
6.4,-0.61101013422012,-0.1008980050683,9.49851036071777,0.006645215259317401,-0.001191395412305784,0.00024476136024553
6.408333333333333,-0.17304182052612,-0.07506886869669,9.69085788726807,0.005254434515780518,-0.004597937739197497,-0.0050642140737324004
6.416666666666667,0.87098735570908,0.09642747789621,9.6157169342041,0.006929094707654886,-0.006822024708712133,-0.002301874680034262
6.425,-0.37763434648514,-0.12878693640232,10.0197811126709,0.00589416638121226,-0.02198024401237385,-0.0015892724593866226
6.433333333333334,-0.40128880739212,-0.03462691232562,9.76316547393799,0.006457900887779101,-0.0049949209108224955,-0.005200117992961774
6.441666666666666,-0.20374864339828,-0.12143353372812,9.86160469055176,0.005503442158297405,0.013241030961008335,-0.004629230922303254
6.45,0.77521055936813,0.02148024737835,9.86268901824951,0.0074928266134785095,-0.011267517281448534,-0.005702157668104028
6.458333333333333,-0.07808043062687,-0.13699124753475,9.60359287261963,0.006861588255359271,-0.017404210252993636,-0.010325574888941645
6.466666666666667,-1.10968494415283,-0.07501186430454,9.76491832733154,0.008134793557661049,-0.0044092808639923705,-0.011940331641343368
6.475,0.50333124399185,0.09727150946856,9.54671382904053,0.006725237528439041,0.012947318622583519,-0.01086561714463109
6.483333333333333,0.06577038764954,0.03335370495915,9.69892597198486,0.005765415546223173,0.0007816716546190617,-0.00797944440128492
6.491666666666666,0.17477971315384,0.09785804152489,9.6666955947876,0.006808389011841623,-0.0012164304269241379,-0.006623980190664532
6.5,-0.01807523332536,0.00456351367757,9.70952606201172,0.00477899316202548,0.008727363024811903,-0.006826941673904407
6.508333333333334,-0.35552489757538,0.01301817409694,9.81809997558594,0.00456262016598361,0.007887798370272444,-0.0003129369025066857
6.516666666666667,0.85398507118225,0.14925837516785,9.58611106872559,0.0033084140733608183,0.007464663684950912,0.001671753861290247
6.525,-0.39106750488281,0.00289696245454,9.96520614624023,0.007638119215847926,-0.0043556345527099105,0.001825986778662848
6.533333333333333,-0.51986145973206,-0.11925219744444,9.7800178527832,0.006864270661949357,0.00165253046754292,0.0047358535934067195
6.541666666666667,0.01580778323114,-0.06793770194054,9.71072864532471,0.0029243956068469596,0.02094375211908806,0.00591249641965253
6.55,0.20927073061466,0.06259452551603,9.97064113616943,0.005886119681590436,-0.009501211058561687,-0.002900030803764715
6.558333333333334,0.67208826541901,0.1021425947547,9.64177513122559,0.006326018757914638,-0.010503503178083297,0.0010700207403095308
6.566666666666666,-1.09893417358398,-0.10196377336979,9.77699947357178,0.007735129539891791,-0.017794039820229736,-0.003101204796167387
6.575,0.26408994197845,0.08349493891001,9.54077625274658,0.006167764051177126,0.006626439453483668,-0.0035817867790344294
6.583333333333333,0.42664563655853,-0.01094384957105,9.85595226287842,0.007180784236613426,-0.000269572775962728,-0.002435990068129217
6.591666666666667,0.54299378395081,0.0282537303865,9.69645118713379,0.0066018515066303,-0.025747108523749784,-0.006737532282088726
6.6,-0.78516042232513,-0.07280878722668,9.68379783630371,0.005906460094564552,-0.008494001973847807,-0.0053534562546556225
6.608333333333333,-0.69275993108749,-0.0299488324672,9.8834342956543,0.0057946973144976915,0.007386204982672437,-0.0013948046134964044
6.616666666666666,0.8537420630455,-0.07230792939663,9.626540184021,0.005371114261039477,0.010797441261022452,-0.003726631533415599
6.625,-0.27541306614876,-0.10325843840837,10.05406475067139,0.006772625671234447,-0.009077853749617816,-0.002050183980741179
6.633333333333334,-0.09310855716467,-0.14613258838654,9.97482585906982,0.007041751623251719,-0.0009526692880870374,-0.0022509107753417136
6.641666666666667,-0.5883857011795,-0.19151736795902,10.10449981689453,0.004066614995409028,0.009026218593091941,-0.0018566100103068017
6.65,0.61251223087311,0.02201645076275,9.79558277130127,0.003599891853183445,0.005401514348912483,-0.0026380581960620338
6.658333333333333,0.04539193958044,0.14285658299923,9.98063373565674,0.009193416215575857,-0.01787137968276129,-0.0057870974225667235
6.666666666666667,0.24308921396732,-0.1150246784091,9.70701503753662,0.009033370637035012,-0.014811750888369496,-0.005851920427974861
6.675,-0.37633258104324,-0.08194986730814,9.29855918884277,0.006253150613330503,-0.014668249157803591,-0.007796600187248213
6.683333333333334,-0.83822709321976,-0.00185222714208,9.65939903259277,0.005497630537426552,0.005780614809936675,-0.01358235562629672
6.691666666666666,0.87339073419571,0.17296288907528,9.6710729598999,0.00811691292765468,0.0052217988290081075,-0.005589946519900484
6.7,0.68061447143555,0.02537113428116,9.6852855682373,0.005742839534349652,-0.010610127409632762,-0.009255110006703229
6.708333333333333,-1.03510224819183,0.08016906678677,9.67115879058838,0.00704934995473686,-0.019167386221302322,-0.010963520563907881
6.716666666666667,-0.14432288706303,-0.04373231902719,9.55858135223389,0.004441245038857149,0.017192529517927088,-0.004209895662798597
6.725,0.80937278270721,-0.00623727915809,9.98868083953857,0.007281372143074914,-0.0046234198215808365,-0.009442201234470404
6.733333333333333,0.30828753113747,0.05053483694792,9.72739410400391,0.005534736381700554,-0.016801582671389894,-0.0016523069336605149
6.741666666666666,-1.41818702220917,0.02859706617892,9.90386962890625,0.0091057940545229,-0.01183616979350504,-0.0046265490358616025
6.75,0.65362679958344,0.01761745288968,9.77538967132568,0.006545074680695203,0.006731943284840213,0.002505506894958679
6.758333333333334,0.49331024289131,0.09523983299732,9.90820980072021,0.008260416738815371,-0.0114101264369303,0.004753287935871017
6.766666666666667,0.3208604156971,0.10649760067463,9.5966157913208,0.009026218593091941,-0.03536231848142635,0.0006605204514868125
6.775,-0.86273998022079,-0.03745236620307,9.68564224243164,0.008479918428989399,-0.005590394367888557,0.002508636369313925
6.783333333333333,-0.02099359408021,-0.06220827624202,9.79570388793945,0.0057148981891470005,-0.0024739895277847554,0.003133168971032166
6.791666666666667,0.440693795681,0.15772019326687,9.52981853485107,0.007049574138805201,0.002849066899072166,-0.0011918424800709435
6.8,-0.12016060948372,-0.0571011453867,9.74821662902832,0.008501601345630168,-0.009899759357475852,0.00042738241425651334
6.808333333333334,0.59070324897766,-0.08618460595608,9.54174900054932,0.00759430813532136,-0.006556474778666134,0.0004423586317268433
6.816666666666666,-0.68519228696823,-0.09708553552628,9.50278759002686,0.004246777323004258,-0.008504283752220426,-0.005318586529429633
6.825,-0.61165392398834,-0.08159963041544,9.45242500305176,0.005401514348912483,0.01085376919867226,0.0002103382964184698
6.833333333333333,0.00539300497621,-0.09425665438175,9.65053367614746,0.0024274965608167124,0.033688105617391266,-0.0017980460836461327
6.841666666666667,0.71275919675827,-0.00807578954846,9.74893856048584,0.003533728164628786,0.005784638679896195,-0.00471193559801498
6.85,-0.21419905126095,-0.16658248007298,9.76805210113525,0.004979049615052754,0.018681215761335378,-0.001647389318282306
6.858333333333333,-0.48459795117378,-0.14835712313652,9.91470623016357,0.002839678996155387,0.02143930606070826,-0.004508526266787207
6.866666666666666,0.88674509525299,-0.01642292737961,9.73810958862305,0.004100591105253481,0.022001029152444035,-0.0014032985109203653
6.875,-0.22911986708641,-0.00226745125838,10.15307426452637,0.005061754810913263,-0.0005820627244869802,-0.0044311869244042625
6.883333333333334,0.07147120684385,-0.11241407692432,9.80519580841064,0.006754520337010952,0.0033287550064835434,-0.005378045241806208
6.891666666666667,-1.18390274047852,-0.14893679320812,10.01913833618164,0.003107687148723131,0.014005937639457717,-0.008153794587860514
6.9,0.98761463165283,0.06033450365067,9.91629409790039,0.003201791662331483,0.01224745653286757,-0.010061144838939958
6.908333333333333,0.23535715043545,0.13788534700871,10.09079456329346,0.00728740690771689,-0.006663991585299742,-0.016177721581579457
6.916666666666667,0.17894725501537,0.08138763159513,9.71400547027588,0.005902213600982692,-0.026894244357355514,-0.011724403372397569
6.925,-0.96033352613449,-0.00818285252899,9.83651828765869,0.006166869395498547,-0.0004394528538007051,-0.01130462260557393
6.933333333333334,0.56598299741745,0.18349188566208,9.70297431945801,0.005445996941346678,-0.0035341752323937714,-0.008660081796881845
6.941666666666666,0.62938582897186,-0.04076405242085,9.65952777862549,0.006967093127013033,-0.008797998171239678,-0.009003642061069638
6.95,-0.41963583230972,0.13497415184975,9.65470027923584,0.005360832482667032,-0.026433781724286076,-0.010157485731670978
6.958333333333333,-0.27544882893562,0.01179503835738,9.51320266723633,0.005705510546304526,0.0027263508287252293,1.5423318760646708e-05
6.966666666666667,-0.66051495075226,0.02695895731449,9.99941539764404,0.004871757512636093,0.011842202477552409,-0.00167242433290066
6.975,0.9413213133812,0.01135871466249,9.5426721572876,0.004004474656665281,0.010005709476374294,0.003548928208565201
6.983333333333333,-0.5699457526207,0.05496963858604,9.80170631408691,0.008128982977087414,-0.008871762531948392,0.0015286967277832583
6.991666666666666,0.13426598906517,-0.17050230503082,9.58246231079102,0.005697015998694804,0.0039222170487183666,-0.00026778458617596353
7.0,-0.94905352592468,-0.11692752689123,10.10193824768066,0.00458162015588551,0.01231116225897479,-0.002341662410749741
7.008333333333334,0.23881109058857,0.01368636265397,9.67489242553711,0.0008429179228514149,0.03420377890880925,0.002528753638516918
7.016666666666667,0.3176366686821,0.10496101528406,9.7256498336792,0.00814932391021014,0.004496008889515182,-0.004776311275583828
7.025,0.71818834543228,-0.01965601183474,9.75958251953125,0.005616100114191628,0.003295002300484344,-0.00013903339358462035
7.033333333333333,-0.53164935112,-0.26199433207512,9.73313045501709,0.0065231691404320944,-0.0008409061829272956,-0.004912662522652668
7.041666666666667,-0.09419593214989,0.03049203380942,9.65855503082275,0.0019471381118322498,0.006768154473435461,-0.008883383693095836
7.05,0.14514547586441,-0.09287973493338,9.7368278503418,0.0014169336876422671,0.02373693580760666,-0.0024212378721807
7.058333333333334,0.39101731777191,-0.00306856958196,9.70298862457275,0.0055459122956031445,-0.0006857788699505942,-0.007948150177881771
7.066666666666666,-0.25980541110039,-0.2071747481823,9.78687000274658,0.0048784627488884826,0.005929036626586857,-0.0037167963026595295
7.075,-0.22316154837608,-0.08720030635595,9.86758327484131,0.005737698385089038,0.0007235547957233783,-0.007664718577532359
7.083333333333333,-0.10395941883326,-0.23778195679188,9.89792537689209,0.004708582719814482,0.018263222225274454,-0.006253373757101626
7.091666666666667,0.09471079707146,0.1489364951849,9.9516716003418,0.004946191824806613,-0.004187990122535314,-0.0031177457833246277
7.1,0.30619904398918,-0.01223127916455,10.04649829864502,0.00589461370905155,0.0041882135263807425,-0.0012745472858198214
7.108333333333333,0.25130799412727,0.10958870500326,10.11080074310303,0.007671649038150305,-0.019048919245280467,-0.008081372730818452
7.116666666666666,-0.34832215309143,-0.16536639630795,9.90814590454102,0.0053923498498409566,-0.006729037734479004,-0.0029751358476197767
7.125,-0.0285683516413,0.17480808496475,9.74552822113037,0.006185198913790207,-0.014836340395668866,-0.007400958478992475
7.133333333333334,0.15511655807495,0.0887596309185,9.76367378234863,0.006970670189281872,-0.008319651787272212,-0.008006715274876983
7.141666666666667,0.40156516432762,0.1141412332654,9.89937686920166,0.009312107895814666,-0.028532916504405585,-0.006523616468271384
7.15,-0.31928861141205,-0.08877393603325,9.76194286346436,0.006779777715177516,-0.022063840222872503,-0.005721827609467731
7.158333333333333,-1.00143361091614,-0.06217272952199,9.61241245269775,0.008916688811181267,-0.01243432409671519,-0.0070307978128228595
7.166666666666667,0.03083590604365,-0.06959716230631,9.64841938018799,0.0024585666001515215,0.016371292821233462,-0.0032093915542626256
7.175,0.60048854351044,0.13682648539543,9.81897926330566,0.006558710377565713,-0.0069592700913109415,-0.008466731620404351
7.183333333333334,0.26182267069817,0.00231036823243,9.6922025680542,0.004015427686871227,-0.005591288503418527,-0.00039474754021639216
7.191666666666666,-0.43474981188774,0.07553418725729,9.65235233306885,0.009907582393177945,-0.022963982429535453,-0.005961671793210484
7.2,-0.48775950074196,-0.09034755825996,9.55204963684082,0.004035992543987989,0.013597108082319538,0.005206375901374873
7.208333333333333,0.31989660859108,0.09532593935728,9.55217838287354,0.006408053482164734,0.005011907925447503,0.0020215722939654415
7.216666666666667,-0.28184348344803,-0.05185095965862,9.83195495605469,0.002182734891733077,0.015911724843842776,0.0018367161449490616
7.225,0.69004189968109,0.11887309700251,9.66016483306885,0.006702437852645787,0.0034680115438391118,0.0007682600767984905
7.233333333333333,-0.64577299356461,-0.15277756750584,10.04285621643066,0.002847502291931783,0.010759889649354988,0.0016377776214086426
7.241666666666666,0.14887219667435,-0.00584377720952,9.76453971862793,0.006429959542576626,0.009203922178016643,-0.0024239197586221773
7.25,-0.29274439811707,-0.28985464572906,9.84837055206299,0.003362059864494669,0.0188488617519558,-0.0002083265564943506
7.258333333333334,0.75549757480621,-0.07875280082226,9.73350238800049,0.0036052564062893128,0.0020910888607206,-0.010957709463185463
7.266666666666667,-0.47704455256462,-0.16469420492649,9.98235702514648,0.0044551038794986095,-0.003965357917708824,-0.005754014928103458
7.275,0.06693630665541,-0.06525538861752,9.74006938934326,0.004080473575976009,0.004186425515394931,-0.00834468550151887
7.283333333333333,-0.74919593334198,-0.18995805084705,10.09968566894531,0.0025940231915416068,0.007916184962719775,-0.008743010136513478
7.291666666666667,0.94906067848206,0.04920440539718,9.79513931274414,0.00515831728696923,0.010312834367898498,-0.004852309674746122
7.3,-0.68449127674103,-0.14638292789459,10.41640663146973,0.007387322261973356,-0.005694110968482204,-0.005917636528615927
7.308333333333334,1.05421257019043,-0.05062648281455,10.31670475006104,0.0013606049697693723,0.04000875644123374,0.008263099145405456
7.316666666666666,1.4185174703598,0.30080288648605,9.81914615631104,0.015720161377979398,-0.0981486381564846,-0.01767601601085795
7.325,-2.38671803474426,-0.26407599449158,9.62043190002441,0.009898865742094492,-0.024694298527003392,-0.004052979818687302
7.333333333333333,-0.40501543879509,0.10450303554535,9.0371732711792,0.008065501435048536,-0.012935916964166762,-0.006153680506318716
7.341666666666667,0.06697206944227,-0.00782520975918,9.69911956787109,0.004859686422906141,0.013117645459348203,0.001432580409232211
7.35,1.71193313598633,0.35284247994423,9.48878383636475,0.009021747395293132,-0.02655627257026763,-0.006324901998762154
7.358333333333333,-1.71967220306396,-0.37611794471741,10.15268135070801,0.007246054049712418,-0.010656394632086463,-0.0075502733908754125
7.366666666666666,0.84361344575882,0.44150921702385,9.46494960784912,0.003089358150580079,0.004462256443590287,0.0014352626857851445
7.375,-0.34560391306877,-0.05266638100147,9.92441940307617,0.006148987205046176,0.004387152179958313,-0.0002852196438445988
7.383333333333334,0.2500419318676,0.14227719604969,9.4276762008667,0.007962679490133644,0.012350054813862905,0.005593299918249766
7.391666666666667,-0.20735362172127,-0.29503345489502,9.61269283294678,0.006175809710501733,-0.0036551030316807676,-0.0014998618972365725
7.4,-0.17772659659386,0.01405558083206,9.81267929077148,0.00397228681788077,0.007905903184347156,-0.0033685422170504136
7.408333333333333,0.08530480414629,-0.00383392372169,9.73388195037842,0.005793580035196598,-0.005285951882954441,0.0022882395033125345
7.416666666666667,-1.05556654930115,-0.01915531419218,10.06075286865234,0.0034626467306589402,0.020035337468288936,0.00024029082888708125
7.425,0.32622376084328,-0.03024362027645,9.74369525909424,0.0012660532583587084,0.03625687013039479,0.005530936175660591
7.433333333333334,0.74052667617798,0.15222680568695,9.87158107757568,0.005797603905156292,0.01113586037594963,0.0069425062204570565
7.441666666666666,0.46787461638451,-0.15656858682632,10.00600433349609,0.006192574101504226,0.00322056772823952,0.0036931024913361317
7.45,-0.03626491501927,-0.03520629182458,9.88242530822754,0.006780672370856096,-0.01675374876120137,-0.0037096434784933724
7.458333333333333,-0.77328717708588,-0.12513901293278,9.93629169464111,0.004399670077378947,0.00042045312397293586,-0.0028785723312665917
7.466666666666667,0.19446434080601,0.02114380337298,9.70507049560547,0.005497407393655429,0.0015463553843530495,-0.010119262087947273
7.475,-0.39188995957375,-0.17533048987389,9.90653038024902,0.004814758063078657,0.0018127990598175627,-0.005888802608329306
7.483333333333333,0.35322144627571,0.04030591994524,9.69464206695557,0.005073601196426266,0.009009900489631345,-0.009035158908095127
7.491666666666666,0.39482262730598,-0.06891048699617,9.844557762146,0.008252369519044938,-0.010752065573355504,-0.006999504109568493
7.5,-0.3807025551796,-0.17749781906605,9.94336700439453,0.005943789082609679,-0.00017524467970782027,-0.006816659895531786
7.508333333333334,0.3621843457222,-0.05577100813389,9.71938991546631,0.005206599565294431,-0.013589508710537183,-0.009818171961065046
7.516666666666667,-0.27249470353127,-0.03328217938542,9.7236967086792,0.006178045309401137,-0.004956026795488377,-0.006932893353248848
7.525,-0.22273238003254,-0.06565594673157,9.55648422241211,0.008121830412995735,0.0035051166078902012,-0.005534065389941533
7.533333333333333,0.14546021819115,-0.06323113292456,9.67272472381592,0.005665946999657387,0.004219730893554666,0.001207489591772344
7.541666666666667,0.04142921417952,0.05833139643073,9.86157321929932,0.004446833515957228,0.0022848863650375573,-0.0003473599500789709
7.55,0.52764374017715,0.08237213641405,9.74549102783203,0.007207607262217591,-0.009284390214531747,-0.009921887521361476
7.558333333333334,-0.31993246078491,0.02740279957652,9.92088508605957,0.005443090350688077,-0.009160110057193034,-0.002939371986863817
7.566666666666666,-0.27158629894257,-0.00386968813837,9.77930927276611,0.005747310211999853,0.008012526895748011,-0.0018029638290613193
7.575,0.04662888124585,0.09189240634441,9.71703624725342,0.005731215772458989,0.0018132458675082434,-0.004946638632497294
7.583333333333333,-0.32494652271271,-0.03351109474897,9.80837917327881,0.0049604979932873616,0.006491205485715924,0.0006097799506396917
7.591666666666667,0.38182592391968,0.04049222171307,9.70763874053955,0.00531746872997993,0.004590113663198013,2.4811425876410475e-05
7.6,0.28129985928535,0.08682835847139,10.0851936340332,0.006158821655579331,-0.012342678065702885,0.00019960904391463336
7.608333333333333,-0.41048020124435,-0.12099033594131,10.08603096008301,0.00627729019204719,-0.009343401078920422,-0.0012745472858198214
7.616666666666666,-0.04169409349561,-0.03397597745061,9.90123081207275,0.005440408464246599,-0.0008024596555069464,-0.0017068472504359676
7.625,-0.19703936576843,-0.01819683238864,10.04025936126709,0.006115011095201723,-0.002428837504037539,0.0006775083763718865
