Time (s),Acceleration x (m/s^2),Acceleration y (m/s^2),Acceleration z (m/s^2),Gyroscope x (rad/s),Gyroscope y (rad/s),Gyroscope z (rad/s)
0.0,0.01545014046133,0.01286081131548,9.73059177398682,0.006808836339681086,-0.0012879586685848388,-0.0018320220634534328
0.008333333333333333,0.01922684162855,0.04089280217886,9.76353740692139,0.006837448156493975,-0.0024610253428218754,-0.0010304565434766314
0.016666666666666666,0.01942712068558,0.01580063067377,9.73608493804932,0.007867457437149719,-0.0005440631673036649,-0.00017211530288052597
0.025,0.01397665496916,0.02193061634898,9.72692966461182,0.006780225043016805,-0.00045822904974589446,-0.0007734010960219525
0.03333333333333333,0.0030184998177,0.02248138561845,9.73059177398682,0.006522275525050732,0.0003136074716448754,-0.0007161785026933916
0.041666666666666664,0.02131547220051,0.03583574295044,9.73790168762207,0.0074096751300759284,-0.00043006475582802313,-0.0014886854631853737
0.05,0.03233085200191,0.02362583950162,9.7525577545166,0.00778162406730566,-0.0004014533941453411,-0.0017747996001621987
0.058333333333333334,0.01771043986082,0.00961342081428,9.75805854797363,0.007523674549339587,-0.0012602417675250078,-0.0035768690336190683
0.06666666666666667,-0.00597262382507,0.02853269129992,9.75805854797363,0.008124960667573894,-0.0014310158020918275,-0.001402404505427547
0.075,0.02343286387622,0.0218661185354,9.74706554412842,0.006379666369568794,-0.0052081646925835985,-0.0026590701209437805
0.08333333333333333,0.01286051701754,0.01321130059659,9.72875881195068,0.007294783135728301,-2.9505480958226594e-05,-0.0022616396214793187
0.09166666666666666,0.01286081131548,0.03396885097027,9.75437450408936,0.0068946707498223625,-0.0013456287197898416,-0.0019174091457554187
0.1,0.02213083021343,0.01075071655214,9.77454471588135,0.006980504639815029,0.0004571114128425449,-0.0005167929438973624
0.10833333333333334,0.02210228517652,0.03143674507737,9.75803756713867,0.005692992648883893,-0.0032630373453966517,-0.0022880158393928027
0.11666666666666667,0.01686640456319,0.01173781510442,9.73609256744385,0.007066339049956478,-0.000744789864376248,-0.0019746318691211315
0.125,0.02241701073945,0.03245960175991,9.74338817596436,0.00752412083688166,0.0002000560954250182,-0.0006307913553728295
0.13333333333333333,0.02972721494734,0.02210943773389,9.76354503631592,0.006780225043016805,-0.00237608506821057,-0.002030960586993852
0.14166666666666666,0.0116017954424,0.03726633265615,9.73056221008301,0.009555975429368329,-0.0020318545924866704,-0.0013447345842596966
0.15,0.03559228032827,0.01432710699737,9.78735542297363,0.008067736513799332,0.0011151729591124763,-0.0018333632667485629
0.15833333333333333,0.03915466368198,0.00944175291806,9.75623416900635,0.007896069774111216,-0.00183291632902073,-0.0027757509065001328
0.16666666666666666,0.01366193033755,0.05218714103103,9.75433921813965,0.008612248406841935,-0.0032022389901709475,0.0019466913041415689
0.175,0.02308957837522,0.00159507186618,9.73793125152588,0.00746689772340449,-0.00045822904974589446,-0.0015177439576517916
0.18333333333333332,0.01579347811639,0.01687355712056,9.7543888092041,0.007037727753292197,-0.0013737930787261143,-0.0009727866873273569
0.19166666666666668,0.02140141278505,0.02661570347846,9.76169300079346,0.008039125217135226,-0.002060466019188103,-0.001487791457692381
0.2,0.03988425061107,-0.00390545232221,9.73428249359131,0.007323393912243973,-0.0018043047722821452,-0.0027466922819965626
0.20833333333333334,0.00705998996273,0.0149851590395,9.72876167297363,0.006894670229673753,-0.0024896366394861554,-0.0010863380635472142
0.21666666666666667,0.01459180004895,0.0247416831553,9.75071239471436,0.006722108314158274,0.0008858350629035638,-0.0018051989078121157
0.225,0.02551419101655,0.00879799667746,9.73976135253906,0.007008221800949338,0.0026606342079355553,-0.0008342003615077218
0.23333333333333334,-0.00949172023684,-0.00165943847969,9.72880458831787,0.00783840037309215,0.0016301779895518042,-0.0014623096353833462
0.24166666666666667,0.01965601183474,0.02283902838826,9.75255107879639,0.006321996448400944,0.00036904202147824993,-0.0028629259997879296
0.25,0.02695191279054,0.03434079885483,9.75435352325439,0.008525519861170516,-0.00019938552628682844,-0.0004309588588487928
0.25833333333333336,0.01965601183474,-0.00160223687999,9.74528312683105,0.005893272245682115,-0.00042872358504226826,-0.0002297850940112243
0.26666666666666666,0.0141769349575,0.03543518483639,9.72139263153076,0.007152620267788609,-0.001918303281285564,-0.0020877362425944057
0.275,0.0125101832673,0.01590077579021,9.732421875,0.0077530117303441625,-0.0003719478969323396,-0.001002739187286593
0.2833333333333333,0.01256037969142,-0.01638000831008,9.75080394744873,0.0058932727658308984,0.00028678434851293357,-0.00011623370966406685
0.2916666666666667,0.02351139485836,0.02252430282533,9.73973274230957,0.007380618066018359,0.00017055064697616692,-0.0016326367322223327
0.3,0.01434138603508,0.01946289464831,9.7397346496582,0.008182629028295745,-0.0006553793022261983,0.0008853878651012518
0.30833333333333335,0.0198992099613,0.00736742839217,9.75991821289062,0.007381957968941795,-0.0032603557190294787,0.00014551566486701377
0.31666666666666665,0.00916994456202,0.04088564962149,9.74883842468262,0.006378325426348142,0.0030580644473257126,-0.0028383377928602564
0.325,0.01991351507604,0.03229508548975,9.76717090606689,0.007266618646754875,-0.0015168498221216468,-0.0014015102398604244
0.3333333333333333,0.02918360009789,0.02369736880064,9.75255107879639,0.007867905285137792,-0.0020890774458895353,-0.0011431139142034957
0.3416666666666667,0.00371232558973,0.02979159168899,9.74154281616211,0.007695790177312993,-0.00100229224955876,-0.0015168499521587989
0.35,0.01480638515204,0.01402672473341,9.76905918121338,0.007381064873709041,-0.0002288910234996554,-0.0007456839999062185
0.35833333333333334,0.01112980395555,0.03283870220184,9.73787212371826,0.007267065454445556,-0.0012289479342333148,-0.00014305687343268422
0.36666666666666664,0.01122984755784,0.03153696656227,9.71956157684326,0.007238902005769174,-0.005008331903475881,-0.0017967048803510025
0.375,0.01898333802819,0.00655208341777,9.73428821563721,0.0075527326536945485,-0.0019764201401812473,-0.002288016099467107
0.38333333333333336,0.01363304723054,0.0383106097579,9.7451753616333,0.005520877541059095,0.00019692671859772393,-0.0027484800329080697
0.39166666666666666,0.00447052670643,0.02414084412158,9.75072002410889,0.006866059973306865,3.241132390294096e-05,0.0014571683560855796
0.4,0.02278180420399,0.0247416831553,9.76536846160889,0.006895117557513042,-0.00203230166025183,-0.0014006159742931275
0.4083333333333333,0.02111519314349,0.02161589078605,9.75805187225342,0.005120318347462474,0.00014283335580487927,-0.0005740156997722762
0.4166666666666667,0.01377635635436,0.04035634174943,9.76348209381104,0.007638119215847926,0.0016324130683026004,0.00013746872142566087
0.425,0.03379700705409,-0.00487105175853,9.73615741729736,0.007609955767171544,-0.0014618624375812084,-0.0026604110641646065
0.43333333333333335,0.03575722500682,0.00684521440417,9.76907539367676,0.008955137159122096,-0.003205815012142395,-0.002028278050366614
0.44166666666666665,0.00850491598248,0.06606363505125,9.74507617950439,0.007609508439332254,-0.0013478640586149422,-0.002718080725257978
0.45,0.02512796781957,0.00994244869798,9.74711608886719,0.007152620267788609,-0.001457839087770297,-0.00022844395573467016
0.4583333333333333,0.03439075127244,0.03252398222685,9.75433826446533,0.007895621405974709,-0.0006875670759919589,-0.0016894121277485818
0.4666666666666667,0.00330461352132,0.04592125117779,9.74331665039062,0.006752060554043205,-0.0017756933455807125,-0.001916067942460463
0.475,0.02364014647901,-0.00100139796268,9.77461719512939,0.007923338567108845,0.0011679252649022924,-0.0038097832768926583
0.48333333333333334,0.036336440593,0.03808173537254,9.76896667480469,0.007380617025720968,0.00045577024205678996,-0.0018633157667077994
0.49166666666666664,0.00331206037663,0.02929804474115,9.71592235565186,0.006636721752004897,-8.896350251236483e-05,-0.002491424910546271
0.5,0.02163735032082,0.04095002636313,9.74698638916016,0.007667177320202711,8.82929089920999e-05,0.00011153965255051295
0.5083333333333333,0.01797509379685,0.02325389161706,9.74524021148682,0.008782127395618544,0.0001678682891498822,-0.0030359352431428726
0.5166666666666667,0.01064356695861,0.02404069341719,9.7617073059082,0.006236609366098957,-0.0007161784376748156,-0.0012307362052934303
0.525,0.02348993718624,0.04277399927378,9.74148559570312,0.007266618646754875,-0.0007711660172711563,-0.00043006472331882234
0.5333333333333333,0.02909776568413,0.01241018250585,9.78006744384766,0.005291539839905736,5.252869469770985e-05,-0.0028919843642171957
0.5416666666666666,-0.00205286592245,0.02742400020361,9.77086925506592,0.006522722852890022,-0.0012325243463163933,-0.002002349160292419
0.55,0.02364729903638,0.05901095271111,9.74874591827393,0.007839740276015583,-0.0021454059036879517,-0.0009991627752036888
0.5583333333333333,0.022037955001,0.00288259307854,9.74715137481689,0.008325239744223507,-0.0005418279260063411,-0.0006307914203914056
0.5666666666666667,-0.00173818599433,0.00709562189877,9.72518253326416,0.005893272245682115,-0.00034244239971951263,-0.0004305117910838076
0.575,0.01658028922975,0.0277744885534,9.73607063293457,0.0068946707498223625,-0.0005726745614957221,-0.0013456287197898416
0.5833333333333334,0.02949832379818,-0.0008082712302,9.76732158660889,0.0072661707987668024,-0.0013769224230442078,-0.0028320785840756355
0.5916666666666667,0.01673765294254,0.03997008502483,9.7488317489624,0.007380617025720968,-0.0007474721409291818,-0.0027189743406395143
0.6,0.00583668751642,0.03333940729499,9.76900100708008,0.007811128459202694,-0.0027444564230228534,-0.0004542055698978305
0.6083333333333333,0.02803199179471,0.02663003467023,9.76169967651367,0.007753459578332061,-0.0009674221992398911,0.0010293390691198093
0.6166666666666667,0.02259583026171,0.04003446176648,9.75248622894287,0.007865669166089604,0.001855045273129266,-0.0030404054006444655
0.625,0.00232474226505,0.03330364078283,9.74887561798096,0.006665779336211249,-0.00017077413209477108,-0.0005740156997722762
0.6333333333333333,0.04079953208566,0.02288194000721,9.7452392578125,0.005950047511171212,5.297574214444459e-05,-0.002663092690531779
0.6416666666666667,0.03162996470928,0.02338976226747,9.75073528289795,0.007582684373430871,-0.003231744162290894,-0.0006813083223373705
0.65,-0.002882683184,0.01663753204048,9.74895858764648,0.007782069834699123,-0.002060018951423118,-0.001256665225404777
0.6583333333333333,0.04121468216181,0.02271027676761,9.73059177398682,0.006180280388151932,-0.002233028324815038,-0.0014560506866730294
0.6666666666666666,0.01211691554636,0.01971323601902,9.76725673675537,0.007353794520265585,-0.002828950150017782,6.146975741443281e-05
0.675,0.01781057938933,0.0311720892787,9.74338054656982,0.00712490258650569,-0.0031463568199146036,-0.000882034986900753
0.6833333333333333,0.02356861717999,0.03179438784719,9.75069141387939,0.008725798937820129,-0.0010863380635472142,-0.001144901925189307
0.6916666666666667,0.01268199086189,0.01964885927737,9.74528312683105,0.007065668058197456,-0.0009785983732169602,-0.003233531913202401
0.7,0.00361933861859,0.02393341250718,9.75626277923584,0.008839348948649715,-0.0012933233517278585,-0.003547810149041194
0.7083333333333334,0.03485570475459,0.01930553093553,9.77639675140381,0.0077530117303441625,-0.0008851643962374226,-0.0007161784376748156
0.7166666666666667,0.02756705693901,0.02330396324396,9.72511291503906,0.0066948379607148206,-0.0018619745634128435,-0.0018288925890983616
0.725,0.00575078045949,0.02572879940271,9.73793601989746,0.008239852141772913,-0.0020032431657854123,-0.0014287804632667268
0.7333333333333333,0.02424813807011,0.01739571429789,9.76177787780762,0.006664885200681104,0.0003685949537132647,-0.0021217120923647274
0.7416666666666667,0.02605065330863,0.00319732073694,9.74538326263428,0.007037280425452909,-0.000145292114730008,-0.0018338102044763963
0.75,0.01690233498812,0.01665890216827,9.75812435150146,0.0065522288052328815,-0.0028052558185457746,-0.0014252041812208003
0.7583333333333333,0.02075755037367,0.02434112504125,9.72878932952881,0.005290645184227157,0.0006225209918314487,-0.0028369968496396052
0.7666666666666667,0.00610839994624,0.02136552706361,9.7745943069458,0.007523227741648907,0.0007445663955122443,-0.0009499871415712558
0.775,0.02614376880229,0.04383976757526,9.75430488586426,0.00783862299671449,-0.0007738482938240899,-0.0018324690011812658
0.7833333333333333,0.01894072815776,0.01348310895264,9.77646255493164,0.007381511161251113,-0.0008891879411040627,-0.0020036904936247017
0.7916666666666666,0.01165913417935,0.02679454907775,9.75991821289062,0.007066786377795769,-0.0009718926168159626,-0.0008587882433425145
0.8,0.00807555951178,0.02917644567788,9.75624179840088,0.0070958439620021204,-0.0009665279986913447,0.0008290592772656838
0.8083333333333333,0.00997821614146,0.01873329654336,9.75082015991211,0.007324288047773944,-0.0012589004341927255,-0.0012012306430620272
0.8166666666666667,0.02108658105135,0.01752446591854,9.75263690948486,0.007695341809176312,0.000255937696768952,-0.00172115302880526
0.825,0.03203746676445,0.02185191959143,9.75627613067627,0.008953347847764588,0.0009443988595270804,-0.001437721558492825
0.8333333333333334,0.0044991383329,0.01326852384955,9.73804473876953,0.005862873718255112,0.0018277753097972677,-0.0018686805798881455
0.8416666666666667,0.00252495356835,0.04326039552689,9.77264308929443,0.006635827096326144,5.297575027174478e-05,-0.0024069319637742555
0.85,0.01168066915125,0.00329031515867,9.73627662658691,0.00752456764457234,0.0007499309486182862,0.0005661922739585537
0.8583333333333333,0.02992019057274,0.02230974286795,9.74712753295898,0.007953291847291169,-0.0014900269265546338,-0.002115900601530853
0.8666666666666667,0.02823235467076,0.03423349559307,9.7909984588623,0.00798234995164613,-0.0013438405787668784,-0.0011730662841255796
0.875,0.01914791949093,0.02356861159205,9.74347305297852,0.005749322146979526,0.0001097514465089736,-0.0023492620426064053
0.8833333333333333,0.01734572462738,0.00760346092284,9.75091457366943,0.008497355372196914,-0.0012575593609347473,-0.001058173834647919
0.8916666666666667,0.02291055582464,0.03770263493061,9.76717853546143,0.007297465542318561,-0.0027118217765476614,0.0006636497958047315
0.9,0.01581493578851,0.01804662309587,9.75084114074707,0.0075236735090421945,0.0002595141088518562,-0.0006339207647094992
0.9083333333333333,0.00296842982061,0.02962707541883,9.75261497497559,0.006923282046486641,-0.00039921808782944127,-0.0007747424293542349
0.9166666666666666,0.03410475701094,0.0504346974194,9.76159954071045,0.008411520441906857,-0.0009991627752036888,-0.0007157314349284064
0.925,0.01589361764491,0.02345417253673,9.73616409301758,0.0062075507415953884,-0.0010635385177911133,-0.002345238692795668
0.9333333333333333,0.01782488450408,0.01859023794532,9.75268650054932,0.006464605603882882,0.0003145015746656451,-0.0011203141083730903
0.9416666666666667,0.01961309462786,0.03923334181309,9.75070571899414,0.007009564304615991,-0.0016035783677930673,-0.0015713905290087303
0.95,-0.00036479497794,0.01409825310111,9.74358081817627,0.00846963769091417,-0.002945630155351221,-0.0011377492310603015
0.9583333333333334,0.03098611533642,0.0295698530972,9.75626277923584,0.007438733754579499,-0.0010291152751629251,-0.0009441752606259244
0.9666666666666667,0.01823971793056,0.03373995795846,9.74526119232178,0.008068630649329478,-0.001455603618908044,-0.0004278294495122978
0.975,-0.01090808585286,0.00869070459157,9.74181461334229,0.007552732133545765,-0.0003688184875958446,-0.00043185292936036176
0.9833333333333333,0.03303164988756,0.04236627742648,9.74884605407715,0.007780282603936226,0.0003663597449253162,-0.0026380581960620338
0.9916666666666667,0.00922001432627,0.02283902838826,9.7490177154541,0.006638510023065013,-0.0021154536638030197,-0.0006249797345018024
1.0,0.00390570238233,0.01225990336388,9.73446273803711,0.007010010072009454,-0.001977761343476203,-0.0019987726181721886
1.0083333333333333,0.02786028571427,0.02770296670496,9.75812149047852,0.007868798380370544,-0.0019710555870752055,-0.0005409338229855714
1.0166666666666666,0.03532084822655,0.02436969615519,9.71602916717529,0.007611296190243761,-0.002719421668478804,-0.001595531148022635
1.025,-0.00103716226295,0.01778911985457,9.73993301391602,0.007982797279485419,-0.0009374695692435028,0.00034266590109271723
1.0333333333333334,0.02646551840007,0.04785967245698,9.75064849853516,0.0062370566939382475,-0.0008556590290617477,-0.0004010063588895567
1.0416666666666667,0.02471319399774,0.03365410864353,9.74343967437744,0.009098640970282613,-0.0017739052045577495,-0.0014860031866322655
1.05,0.00110153784044,0.0235400069505,9.76368808746338,0.007981010048722521,0.00028633728074794833,-0.001207489591772344
1.0583333333333333,-0.00621582055464,0.00044347625226,9.77305126190186,0.008670363575254464,-0.0020859479715344647,-0.0007689306134274795
1.0666666666666667,0.02685177326202,0.04517735540867,9.77631950378418,0.0069787163687550875,0.0004508526591879564,-0.00275250390286759
1.075,0.02496377006173,0.02153717912734,9.72706699371338,0.007179890621232064,-0.0006929317591351531,-0.0027198692563923975
1.0833333333333333,0.04151473939419,0.00739606050774,9.71619319915771,0.005490925301174163,-0.000326348480327257,-0.0037217137880004116
1.0916666666666666,0.04337500780821,0.02830380573869,9.75264549255371,0.007866116493929067,5.252869469770985e-05,-0.002408273167069386
1.1,0.00864063389599,-0.00590824848041,9.75296592712402,0.006808836339681086,-0.00013813930681845103,-3.1293692078848596e-06
1.1083333333333334,0.02326104603708,0.02218811959028,9.76004695892334,0.008096796698748902,-0.002349709370445869,-0.002283992489581891
1.1166666666666667,0.03257431462407,0.03740939125419,9.74707984924316,0.006463711468352737,0.0004526408652294958,-0.0023237799602230658
1.125,0.01243145298213,0.03259554505348,9.76912307739258,0.006322890063782305,-0.0014618623075440564,-0.0016572244190013968
1.1333333333333333,0.0107507230714,0.02038560248911,9.78022480010986,0.006665332528520569,0.0007445663955122443,-0.0008654941297806643
1.1416666666666666,0.02165856584907,0.01900511234999,9.76740646362305,0.006121269523763257,-0.0002624199843059459,-0.0022053111636809028
1.15,0.02709496952593,0.05783073604107,9.75241470336914,0.00683565936528525,0.0008536471591004763,-0.0021820641600483596
1.1583333333333334,0.0307787284255,0.00347627094015,9.75473403930664,0.008555472101055447,-0.002199052735119195,-0.0005959213050539606
1.1666666666666667,0.02181603200734,-0.01058618910611,9.74387359619141,0.00703772671299498,-0.0008292827461296875,-0.0011167376962900116
1.175,0.00352620170452,0.02481321059167,9.75091171264648,0.0074950627325266975,-5.677569623722881e-05,-0.001119867040608105
1.1833333333333333,0.02180186472833,0.04004876688123,9.74526882171631,0.007726636032579287,-0.003723949126825512,-0.0022772864731065894
1.1916666666666667,0.01115862652659,0.00940597057343,9.7308988571167,0.007694448713943559,-0.0007506016152844275,-0.0028052560786200795
1.2,0.02768150158226,0.03402607515454,9.74898910522461,0.006495005691755887,-0.0022942747881031194,-0.0023112625829510413
1.2083333333333333,0.01133725605905,0.04159378260374,9.72146415710449,0.007724848281667955,-0.0012566654854790813,-0.0009151170262338108
1.2166666666666666,0.03350391611457,0.01138732582331,9.74919605255127,0.008468296227544737,-0.0014614154998533755,-0.0019442323013967356
1.225,0.02808931842446,0.03775268793106,9.75445461273193,0.00792512683816896,-0.0018029636990241672,-0.0014842150456093022
1.2333333333333334,0.01729557476938,0.016501609236,9.76566886901855,0.006321549120561654,0.00037217133328696814,-0.0009790453109447931
1.2416666666666667,0.03195890411735,0.00442760996521,9.78590488433838,0.00772440095382849,-0.0003934064344492133,0.00011109260916742829
1.25,0.01911239698529,0.01379783451557,9.74554061889648,0.008525072013182441,-0.0002843255408238291,-0.0012057013207122283
1.2583333333333333,0.03381130099297,0.01657313108444,9.76931858062744,0.006952787478680894,0.00024163199967283617,0.001510367599603229
1.2666666666666666,0.02281735651195,-0.00319009041414,9.75120449066162,0.006036776576991415,-0.0022075465025060033,-0.0019674790449549745
1.275,0.02296777814627,0.01562180928886,9.7528657913208,0.0071208797568433875,0.0018300105185852162,-0.0013590404926661413
1.2833333333333334,0.02097917534411,0.01798942871392,9.74918746948242,0.009070475961160404,-0.002574129586258171,-0.0013952515512244122
1.2916666666666667,0.01197361480445,0.02754559740424,9.71614170074463,0.007580003527286613,-3.0846641584768984e-05,-0.0018074342466372162
1.3,0.01382644567639,0.03021360933781,9.73810195922852,0.007722612162619766,0.0010020686506577786,-0.0011547371559455502
1.3083333333333333,0.03208746016026,0.03296745941043,9.76368618011475,0.008039125217135226,-0.00040011222335941174,-0.0013483109963427751
1.3166666666666667,0.01935571804643,0.00052217487246,9.7530460357666,0.007951503576231053,0.0011138320158918247,-0.001756023144142705
1.325,0.00090841104975,0.02494196407497,9.75282955169678,0.006836553500815221,0.0004012298277533859,-0.0009794924437283546
1.3333333333333333,0.02831095270813,0.03092174045742,9.7417573928833,0.007179443293392601,-0.0004077120827813535,-0.002720762871773934
1.3416666666666666,0.02656565792859,0.01334005221725,9.75658512115479,0.007067233185486448,-0.0012571124232069145,-0.0009142228907038405
1.35,0.00837597902864,0.00095848093042,9.74575614929199,0.008697187641155847,-0.0005118754260471049,-0.0009473048650183221
1.3583333333333334,0.02482036501169,0.02717364951968,9.73082065582275,0.007325629511143377,-0.001567366789086362,-2.503495163169016e-05
1.3666666666666667,0.01764633692801,0.01484215725213,9.7218017578125,0.006979162656296985,0.0001665271346189022,-0.002208440117887365
1.375,0.02683031372726,0.01578632369637,9.75658512115479,0.008354297848578468,-0.0013456287197898416,-0.001600895831165829
1.3833333333333333,0.0250634457916,0.02166597172618,9.72906017303467,0.007981903143955275,-0.0009164580994917889,-0.0016312953988900502
1.3916666666666666,0.01415535528213,0.03731640800834,9.76370048522949,0.006925071357843974,-0.0016867301112699525,-0.0009687633375164453
1.4,0.01064343005419,0.02117956802249,9.74373817443848,0.008467401571865983,-0.0010089980059597577,-0.002890195833082776
1.4083333333333334,0.02904039435089,0.0293981730938,9.76012420654297,0.007923338567108845,0.00039675931264971206,-0.0020676188433542604
1.4166666666666667,0.02357576973736,0.01383359823376,9.78594017028809,0.007179890101083455,0.0004588996188840842,-0.0010662205992883187
1.425,0.03812465444207,0.02511363103986,9.75649929046631,0.005062201618603944,-1.1176317220953206e-05,-0.0029219368641766057
1.4333333333333333,0.036336440593,0.02024969831109,9.77670574188232,0.006092210379111077,-0.00020787948872936536,-0.0024064846359349657
1.4416666666666667,0.02899762615561,0.02047143690288,9.75290870666504,0.0071231153557429665,0.00014551568112178867,-0.0007783189064557151
1.45,0.0125389341265,0.00075104850112,9.74215793609619,0.006665332008371785,-0.0009531164208705987,-0.0028034675474856597
1.4583333333333333,0.00707416189834,0.03999869897962,9.76554012298584,0.007119985101164809,0.0018809742932404381,-0.002533000652247562
1.4666666666666666,0.01974184624851,0.03879702091217,9.76737117767334,0.008010068153077483,0.0003811125260410178,0.0001924562197486505
1.475,0.0106005128473,0.00817569904029,9.75675678253174,0.008038678409444545,8.963407165055462e-05,-0.00075015441748229
1.4833333333333334,0.03621484339237,0.01615111902356,9.75114154815674,0.0068070480686209705,0.0005661922739585537,-0.00223928727352553
1.4916666666666667,0.00691679911688,-0.00158793118317,9.75870227813721,0.006321101792722365,0.000946634133333605,-0.0006678967445167991
1.5,0.02143707126379,0.03024937212467,9.77297973632812,0.006520487253990617,0.0011124906825595424,-0.001698800420776992
1.5083333333333333,0.04147218167782,0.03253113105893,9.76194953918457,0.007439627890109645,-0.0015396496279520518,-0.00045375850213284525
1.5166666666666666,0.01419121213257,0.00377670489252,9.7623233795166,0.0077829639702290945,-0.0008494002103884086,0.00019916195989504775
1.525,0.01235268637538,0.03172286227345,9.74918079376221,0.006693943825184675,-0.00020653836670758615,-0.002292486517043004
1.5333333333333334,0.03072861395776,0.01587215811014,9.75301551818848,0.005118530076402359,0.0008509649475661186,-0.0021547940666792093
1.5416666666666667,0.01596546173096,0.01404103450477,9.72009944915771,0.007494168596996554,5.029343308213558e-05,-0.0023801086780957863
1.55,0.02877588756382,0.02588613890111,9.73826694488525,0.006381453600331693,-0.002292039449278019,-0.001650518532563247
1.5583333333333333,0.00883376132697,0.03389016911387,9.75650596618652,0.007812023635030056,-0.0015369673513991181,-2.503495569534026e-05
1.5666666666666667,0.00531424488872,0.03830352425575,9.7674560546875,0.006522722332741414,-0.0011252317237511245,-0.0027162921941235583
1.575,0.00725298281759,0.01489221863449,9.75490379333496,0.006982292910875145,-0.0012222423078694694,5.9234483607908245e-05
1.5833333333333333,0.03478427603841,0.02637968398631,9.74376010894775,0.0077252940490612435,-0.0007121549578267516,-0.0008882938055739176
1.5916666666666666,-0.01282504759729,0.05623565241694,9.74712944030762,0.006663097449769772,0.0016270485151967332,-0.0017595995562256091
1.6,0.03481280431151,-0.00885525718331,9.76250648498535,0.006833424286534454,0.0033218253260885087,-0.0006826495906510768
1.6083333333333334,0.0088053252548,0.02991322986782,9.74742317199707,0.0074642158369630125,0.001602013370541227,-0.001330875873655564
1.6166666666666667,0.01414838433266,0.02095782198012,9.71274662017822,0.008240299469612205,-0.0014265452544787785,-0.0008270475373417391
1.625,0.02716669999063,5.728337055e-05,9.74411869049072,0.0072630421046346455,0.0022010641499504336,-0.0015637903770032832
1.6333333333333333,0.0397197380662,0.04846766218543,9.7581729888916,0.007351112113675325,0.0001075161970843496,-0.002409167562673835
1.6416666666666666,0.0105361379683,-0.00229606265202,9.75699996948242,0.008411520441906857,-0.0010282212046515307,-0.0012870647931289983
1.65,0.02695883251727,0.05331733822823,9.75264263153076,0.008468297267841953,-0.0018405159608773937,-0.003084217001319465
1.6583333333333334,0.01441994309425,0.00660205027089,9.77155494689941,0.008408838035316769,0.0010230801204094925,-0.0025017072090675
1.6666666666666667,-0.01870468445122,0.02507786825299,9.73657894134521,0.008270028045577577,-0.0008467178688168987,0.0003715008291673544
1.675,0.00707416189834,0.00595831824467,9.75876712799072,0.007928256052449727,-0.0029992769867824643,-0.0006442030632307276
1.6833333333333333,0.01643007993698,0.01934128813446,9.75127029418945,0.008497801659738987,-0.0021825114878876494,-0.0027672560988161064
1.6916666666666667,0.01103683654219,0.05119289830327,9.75453186035156,0.0078102353639699406,-0.0014377216885299773,-0.0025428364031524135
1.7,0.00385538232513,0.03880417346954,9.74007606506348,0.008728482384707607,-0.002137806271831288,-0.0003357366108091397
1.7083333333333333,0.02429105527699,-0.00236043822952,9.75522613525391,0.006866506260848936,-0.001261135642980674,-0.0015704961334042807
1.7166666666666666,0.03156549483538,0.04361088201404,9.72533416748047,0.008553682789698112,-0.0011560783592405059,-0.003346189348947841
1.725,0.01159475836903,0.03001332841814,9.75667095184326,0.006610792341782094,-0.0013371346923287287,3.1964268328906025e-05
1.7333333333333334,0.00993529893458,0.01252462808043,9.77888011932373,0.00741280486450548,-0.002831631776384955,-0.001131937480152297
1.7416666666666667,0.03755958005786,0.02743115276098,9.74752235412598,0.0066943911530241386,-0.0003706066936373839,-0.001032691817283156
1.75,0.00459927786142,0.03133660554886,9.73104190826416,0.0071794438135413825,0.00011288083146356804,-0.0014940502763655455
1.7583333333333333,0.01022115908563,-0.00234607839957,9.76994514465332,0.00620799702913746,-0.001323723179526559,-0.002284886104963253
1.7666666666666666,0.01204538717866,0.02333257347345,9.73481178283691,0.007293889520346939,0.00019782085412786896,-0.001638001415365527
1.775,-0.00442781765014,0.03533506020904,9.7694730758667,0.007809341748588579,-0.0007827894540687643,-0.0029760302432242257
1.7833333333333334,0.03051402792335,0.00693825772032,9.78263568878174,0.008780786452397892,-0.00027314920430040703,-0.003953287088053176
1.7916666666666667,0.02864713594317,0.01648014970124,9.75870227813721,0.005350103376455122,-5.454043055800444e-05,-0.000547192544130959
1.8,-0.0025607177522,0.03658679127693,9.72918224334717,0.007406992723485843,0.0011093613382414489,-0.0023023214877249433
1.8083333333333333,0.01386936288327,0.02458432130516,9.74214363098145,0.007611743518083051,-0.001655883345743419,-0.0008529765574529114
1.8166666666666667,0.00293981842697,0.04132912680507,9.7181453704834,0.007754800001404278,-0.00322146212384397,-0.003875500157756462
1.825,0.02158728055656,0.03142243996263,9.74755096435547,0.007350665305984645,0.0005380280125500577,-0.002155241394518499
1.8333333333333333,0.02895448170602,-0.00282537168823,9.74252128601074,0.007666283184672741,-3.039958397899627e-05,-0.0016652713786975248
1.8416666666666666,0.04179400205612,-0.00013590660819,9.75712966918945,0.006522722852890022,0.000269349258334923,0.0005076283798072604
1.85,0.0106005128473,0.02996325865388,9.78240013122559,0.006889753264481479,0.0015854723833839861,-0.0036501852862655805
1.8583333333333334,0.0031043337658,0.02816074341536,9.74582767486572,0.006952787998829502,-0.0011091379343961957,-0.00031204283199511674
1.8666666666666667,-0.00765354186296,-0.04322462901473,9.71021366119385,0.006693944345333458,-0.0005798273856618795,-0.002318862734956488
1.875,-0.05331728979945,-0.05157915130258,9.73788070678711,0.00843744933198105,-1.3411582900177583e-05,-0.0034682352077588445
1.8833333333333333,-0.01676626317203,-0.03456968814135,9.71928310394287,0.0055401011948807265,0.0048100642416573315,-0.004530432847347707
1.8916666666666666,0.00469941785559,0.00057222740725,9.70777416229248,0.006601404698939618,0.0036468326681393863,-0.0033502132189073613
1.9,0.01163767557591,0.01522125024348,9.66909885406494,0.00871864637372845,0.003913723541405862,-0.0025236127493307825
1.9083333333333334,-0.01248886343092,-0.00315440376289,9.61995887756348,0.00911249877062668,0.008436107868611617,-0.0024131903923359636
1.9166666666666667,0.04925447702408,-0.04574242979288,9.65164566040039,0.007246054049712418,0.012508310040749027,-0.0046444307061653655
1.925,0.56115520000458,-0.04876783117652,9.80494499206543,0.008081149587047504,0.007390899324242196,-0.008213253820385699
1.9333333333333333,-0.52215033769608,0.67682337760925,11.26616477966309,0.010032533542275852,-0.013162126491336395,-0.0020846067682393343
1.9416666666666667,0.73273009061813,-0.28567025065422,9.87046527862549,0.009561340242548675,-0.022470209476894147,0.0006725908260124281
1.95,-0.68637251853943,0.14676202833652,9.50154304504395,0.0037751366954376186,-0.017722956305665283,0.001529143795548418
1.9583333333333333,-0.53910261392593,0.13591116666794,9.08770084381104,0.012034435894877592,-0.012407501071111025,-0.0009486458732575495
1.9666666666666666,-0.1043885871768,-0.30413171648979,9.27304553985596,0.005221351501168643,0.00753529623063564,-0.003465552281019975
1.975,0.52423185110092,0.16420781612396,9.70095729827881,0.0025072951660187947,0.006787825455096556,0.0004620290607299545
1.9833333333333334,0.63917064666748,0.28283053636551,10.0048828125,0.009555080773689576,0.0018948330038447453,0.002896677925564216
1.9916666666666667,0.17914295196533,-0.3471203148365,9.80256366729736,0.011765757270699432,-0.004323893781690385,0.0010816441120887373
2.0,0.06720811128616,-0.25607177615166,9.60545253753662,0.003317801716203293,-0.0018941626622714846,-0.005110259712860804
2.0083333333333333,-0.2970358133316,0.25493448972702,9.42250442504883,0.006605428048750531,-0.00017166826762474152,-0.005040072934569712
2.0166666666666666,-0.59847122430801,0.06326689571142,9.49180126190186,0.010678971164108594,0.013075173241448025,-0.0021109829861528187
2.025,-0.2873869240284,0.01886204630136,9.94431114196777,0.006700649581585847,0.014020691135777754,-0.0011994425020390637
2.033333333333333,0.35208439826965,0.30097731947899,10.38229465484619,0.006079246194148373,0.008493331502237394,-0.0016719771350985223
2.0416666666666665,0.31938144564629,-0.0037551485002,10.42549133300781,0.01039732835496773,-0.006343231517053814,0.002788044359778296
2.05,0.17729036509991,-0.20790453255177,10.10285377502441,0.00517709413310018,-0.018693507914241844,-0.00217714680474463
2.058333333333333,0.03973404318094,0.12474557757378,9.58694839477539,0.004549432317101172,-0.020358780463273735,-0.002793185248964431
2.066666666666667,-0.18657475709915,0.16523067653179,9.15081787109375,0.01149305477656193,-0.013380289318884383,-0.0009647399226869574
2.075,-0.32558310031891,-0.1758740991354,9.09231472015381,0.009129040538006833,-0.0016438130362363794,0.00023313802097569877
2.0833333333333335,-0.03976265341043,-0.0139265852049,9.39147567749023,0.005504784141815448,0.010299424935691111,-0.001144455117498626
2.091666666666667,0.37754851579666,0.01816106773913,9.80599021911621,0.008076232101706446,0.011380398901262318,-0.0024713076413431035
2.1,0.32621970772743,-0.11059010773897,10.08650970458984,0.006937588735116,0.007504897183059853,-0.0038138071468521786
2.1083333333333334,0.14365085959435,0.08512610942125,10.07090282440186,0.005627947540001849,0.0021927937864088783,-0.00603118862004012
2.1166666666666667,-0.01665181852877,0.2659569978714,9.92909049987793,0.007758376023375725,-0.004358316699225692,-0.002661304939620273
2.125,-0.32343009114265,0.00934876594692,9.70839595794678,0.010079027549540938,-0.004878686932956824,-0.00022665574969313082
2.1333333333333333,-0.4309515953064,-0.06646423786879,9.63471603393555,0.0069831875665538985,-0.0016786830215366724,-0.00016406834318439818
2.1416666666666666,-0.13428032398224,0.07205058634281,9.83897876739502,0.006345242931884878,0.0026852221547889236,-0.0018011755580012037
2.15,0.23220989108086,0.00685957632959,10.00429534912109,0.007898750620255475,-0.0014471095914469312,-8.09165346889368e-05
2.158333333333333,0.28562745451927,-0.05657192319632,9.99425411224365,0.00719374894172474,-0.00826868710235675,-0.0013693224010759132
2.1666666666666665,0.24331110715866,0.0902116522193,9.75750732421875,0.005625488277182712,-0.011354693154959246,-0.0005999447849020246
2.175,0.07190752774477,-0.01562896184623,9.45185947418213,0.010399562913569917,-0.0088561143799496,-0.00036658324629852083
2.183333333333333,-0.18549467623234,-0.14307115972042,9.27677249908447,0.006524957931640818,-0.003253202634789017,-0.0037279724766364247
2.191666666666667,-0.23889064788818,0.05031309649348,9.32315826416016,0.005957648443399747,0.010995932066611952,-0.003529928218663302
2.2,-0.04174395278096,0.15578183531761,9.65252590179443,0.007641472094048424,0.014213147176725453,-0.002327803310033978
2.2083333333333335,0.17255517840385,0.01027147751302,10.0739631652832,0.007334124578901883,0.010939605169259535,-0.00024051439527886194
2.216666666666667,0.19193230569363,0.05246617645025,10.25639820098877,0.005681816734981303,0.005947812952569199,-0.0014564977544380144
2.225,0.1289943754673,0.06402509659529,10.1647481918335,0.006073435093425955,-0.004885839497048502,-0.00039340636943063724
2.2333333333333334,-0.06466170400381,-0.06677894294262,9.90901184082031,0.008772292424936606,-0.012059694313341373,-0.003397600841553984
2.2416666666666667,-0.24364729225636,-0.04373248293996,9.63972949981689,0.005450690762767828,-0.010177603000874145,-0.003466894264538018
2.25,-0.19784060120583,0.11559719592333,9.4959774017334,0.006100705446869582,-0.005328422020260181,-0.001963455695144237
2.2583333333333333,0.01015703659505,-0.02630100399256,9.58959484100342,0.008441025353952499,-0.0017475289866442651,-0.0019388676182537162
2.2666666666666666,0.20660284161568,-0.06661443412304,9.7236328125,0.007265724511224731,-5.3199271963199834e-05,-0.0009504339492619367
2.275,0.27035599946976,0.06699352711439,9.77803611755371,0.006322890063782305,-0.0016192249593460332,-0.0032254854736548815
2.283333333333333,0.17703260481358,0.06097089871764,9.73618412017822,0.008956925430182212,-0.002673375249127312,-0.0032473910139179897
2.2916666666666665,0.01036446914077,0.06064895540476,9.60279941558838,0.006663544777609062,-0.001260688705252841,-0.004859910086825873
2.3,-0.18015150725842,0.09853041172028,9.57869434356689,0.00731624082800351,0.0026463285596034147,-0.0031776507832432742
2.308333333333333,-0.18359918892384,0.03878270462155,9.69145107269287,0.00862476422366796,0.008397662121414181,-8.0916542816237e-05
2.316666666666667,-0.06649988144636,-0.03952649608254,9.86291885375977,0.006454993776971892,0.007123337459216699,0.0018490099883385067
2.325,0.08329485356808,-0.0151783330366,10.04173278808594,0.006370278206577712,0.004955356323877964,-0.0006209562546537385
2.3333333333333335,0.16339954733849,0.03833922371268,10.12309551239014,0.007820069814503096,-0.005336021392042541,9.633986056092755e-05
2.341666666666667,0.09036901593208,0.01156614720821,9.93138599395752,0.006367148472148161,-0.008772516088856337,4.224648557695803e-05
2.35,-0.02283187396824,-0.00560067594051,9.67731761932373,0.006772177823246374,-0.011695792075733463,-0.0005901094891272052
2.3583333333333334,-0.0956549718976,0.02943394891918,9.46806812286377,0.008048513900274919,-0.006360665859518112,-0.002641187670417105
2.3666666666666667,-0.07328803092241,0.03675846010447,9.42761898040771,0.007638567063835824,-0.0007461310676713784,-0.0017752465378900316
2.375,0.03324641287327,0.03648665174842,9.56295776367188,0.006401125622290005,0.0033727897509296667,-0.0016388954208583452
2.3833333333333333,0.17405012249947,0.11214942485094,9.74266529083252,0.006480252195435673,0.007098079560901526,-0.0010143625590657997
2.3916666666666666,0.1923256367445,0.04592840373516,9.89766788482666,0.008207664823137012,0.0019355147400532176,0.0004606878249256236
2.4,0.06047013401985,-0.01495659444481,9.86238288879395,0.007033481259710338,0.0023269099547269206,-0.0003715008291673544
2.408333333333333,-0.07363136857748,0.01683063991368,9.7924633026123,0.007182572507673541,-0.0014547096134150512,-0.0009093052753256314
2.4166666666666665,-0.14662593603134,-0.00238908757456,9.82591152191162,0.006923952518097055,-0.0012325242162792413,-0.001597766356810583
2.425,-0.14097553491592,-0.02790326066315,9.80074596405029,0.007177878166103608,0.0010608560461822767,-0.0011896072712828205
2.433333333333333,-0.02406898699701,0.04718727618456,9.84496688842773,0.0063778775783600705,-0.0006155915715107189,-0.002862031604183655
2.441666666666667,0.10266455262899,-0.01303954888135,9.90262317657471,0.0072988059653906045,-0.0030761697815490326,-0.00301179384390588
2.45,0.13387976586819,-0.00443476252258,9.83281993865967,0.0067051197390874395,-0.006471535024203612,-0.001864209772200792
2.4583333333333335,0.12656240165234,0.06310237944126,9.69240951538086,0.008392744115924514,-0.00673484935535003,-0.0028937721151287023
2.466666666666667,0.04269532114267,0.04644341021776,9.56467437744141,0.00950635324811952,-0.004367258574674879,-0.0007425545905697235
2.475,-0.06698637455702,0.04727314040065,9.4916296005249,0.007552732133545765,-0.0011529490149225867,-0.0024292843117282195
2.4833333333333334,-0.04457661509514,0.00557198328897,9.57661914825439,0.00645387753796819,0.005518643502605516,-0.0016603540233936203
2.4916666666666667,0.03770269453526,0.00954909715801,9.74487686157227,0.006396206056354513,0.005724733679977548,-0.001032691817283156
2.5,0.07977565377951,-0.01032870542258,9.91916179656982,0.006883493795622554,0.00570014573312418,-0.0006607439203508163
2.5083333333333333,0.08306596428156,-0.01061481889337,9.97046947479248,0.007116855886883868,0.0027187509367940866,-0.00132059383520864
2.5166666666666666,0.02033553272486,0.03291738405824,9.92948341369629,0.0076685193037207555,-0.0019594322152961734,-0.0029648538091728524
2.525,-0.04749487712979,0.02130831964314,9.77966022491455,0.008364132819260234,-0.005547476902743528,-0.0012723119469947208
2.533333333333333,-0.10585492104292,0.02524238266051,9.67348289489746,0.006959493755230674,-0.004672595715287573,-0.0022518049108718585
2.5416666666666665,-0.04693711549044,0.0426023863256,9.67854595184326,0.00749908608233761,-0.0028119615749469472,-0.002384579355746162
2.55,0.0594758875668,0.05866046622396,9.69819641113281,0.00649992265694816,-0.0036676204089527925,-0.0018601864223898802
2.558333333333333,0.09291543066502,0.03829631954432,9.74797344207764,0.005350550184145804,-0.0011761957584808256,-0.0013965927545193679
2.566666666666667,0.10757142305374,0.05692233890295,9.73843669891357,0.006781119178546776,-0.0008882936755367655,-0.0014864503844345773
2.575,0.07303760945797,-0.01315407361835,9.6922435760498,0.008182629028295745,-0.00027940799046437086,-0.0009499870765526798
2.5833333333333335,-0.00212439429015,-0.01571479626,9.63567352294922,0.00772663655272807,-0.0013979339578144981,-0.001139090434355432
2.591666666666667,-0.0568937137723,-0.00344051746652,9.6813440322876,0.007606378184754094,0.0017517761304120614,-0.0008838231929422925
2.6,-0.04783791303635,0.02246718294919,9.75592803955078,0.006973352075723349,0.0022788510802469724,-0.0024333079216134353
2.6083333333333334,-0.00203852471896,0.01369057316333,9.83110427856445,0.006053764631913642,0.005384526293990256,-0.0006602969176042326
2.6166666666666667,0.03599275276065,0.05278092622757,9.92368125915527,0.007096738097532091,-0.0020729833964601273,-0.0027341746446502336
2.625,0.05265207588673,0.0458640307188,9.91097927093506,0.008276063330368162,-0.004756640814071516,-0.002393967258662941
2.6333333333333333,0.03100757487118,0.00387684092857,9.7946310043335,0.008764244685017564,-0.00476602845691399,-0.000477452313456069
2.6416666666666666,-0.01290372852236,0.04102155566216,9.70059967041016,0.007277347232818003,-0.00642012353159747,-0.0025482004361096723
2.65,-0.01622980087996,0.03794583305717,9.60909366607666,0.007813811385941389,-0.0027542916537790967,-0.002299639081134857
2.658333333333333,0.01343323290348,0.01342585124075,9.62784862518311,0.0074673450512437786,-0.0013590401025546847,-0.002942053873305295
2.6666666666666665,0.03934063762426,-0.00140195724089,9.67572212219238,0.007434709884619978,0.001265382916785622,-0.000821682919217121
2.675,0.07050557434559,0.00057222740725,9.73790168762207,0.008204981896398317,0.002637834532142302,-0.0010657736615604855
2.683333333333333,0.07225086539984,-0.00318301515654,9.79110431671143,0.007319371082581669,0.0010458797962027459,-0.0027082452344274303
2.691666666666667,0.01179503835738,-0.00989953428507,9.80419445037842,0.0072612538335745285,0.0006895788159160782,-0.003934958089910123
2.7,-0.02710195071995,0.04402573779225,9.73178005218506,0.00778117673946637,-0.0007242254623895195,-0.0024619197384263248
2.7083333333333335,-0.02697337046266,0.05290957912803,9.77738571166992,0.006756978039384263,-0.003091816633176129,-0.0015213203697346958
2.716666666666667,-0.03371850028634,-0.00636603031307,9.80975246429443,0.008438791315499093,-0.00020251488685952225,-0.0018959508032944479
2.725,0.00451344391331,0.05505543202162,9.81576061248779,0.007558543754416792,-0.003379271323262323,-0.0018051989078121157
2.7333333333333334,0.07250837236643,0.0632454380393,9.81362915039062,0.0077355763475824724,-0.005517524142709988,-0.0011538430204154051
2.7416666666666667,0.04024189338088,-0.03097896277905,9.74970436096191,0.00767231898961211,-0.0037686543428820485,-0.0035755278303241126
2.75,0.04392561689019,0.01460610609502,9.70847606658936,0.006414535574646174,-0.00276278568124021,-6.526969931644129e-05
2.7583333333333333,0.0147562539205,0.01031439844519,9.6591911315918,0.007437840659346746,3.956417245099892e-05,-0.00046717014497199273
2.7666666666666666,-0.01442728377879,-0.011065447703,9.66520023345947,0.008294840696647895,-3.35289547107281e-05,-0.0021266299678170666
2.775,0.02398348227143,0.01611535437405,9.69936275482178,0.0069197055043664114,0.0009131051562727141,-0.0016201190948760037
2.783333333333333,0.02946971356869,0.04399713873863,9.77937412261963,0.0076376724081570705,9.008111503363926e-05,-0.001097067364814852
2.7916666666666665,0.04239489883184,0.03053548745811,9.80344295501709,0.008580953663290175,0.00020184431772133244,-0.0016143074740049763
2.8,0.00948474463075,0.03548527881503,9.83822917938232,0.007347535051406486,0.001926573774864097,-0.0005731216292607073
2.808333333333333,-0.00534317363054,0.0357928276062,9.82726955413818,0.0074955095402173795,-0.0005136635670700681,-0.0014050867819804809
2.816666666666667,-0.02193776890635,0.05004844069481,9.78305816650391,0.006263432391703122,0.00013702166991527603,-0.0017832934975861596
2.825,0.01484204828739,-0.00290401885286,9.75846481323242,0.007186149049793773,-0.0025397064086485595,-0.000782342256266627
2.8333333333333335,0.01304678525776,0.01122996304184,9.70689392089844,0.006696849895694492,-0.001342946313199581,-0.0011386432365532947
2.841666666666667,0.03702311590314,0.01830412447453,9.7506628036499,0.0072661713189154115,-2.279968798420357e-05,-0.0009240579914227569
2.85,0.06454725563526,-0.00529310386628,9.72730159759521,0.006469076801681692,-0.001269629670441787,0.000377088948665177
2.8583333333333334,0.04078551009297,0.01554312743247,9.73974704742432,0.00551908874985037,-9.835158626148603e-06,-0.0020381132811226827
2.8666666666666667,0.02773883379996,0.05573495477438,9.71694564819336,0.005749322146979526,-0.00014216278666651495,-0.0010644326533210836
2.875,-0.02149429358542,0.01773189753294,9.72703647613525,0.009064663820140768,0.0016096132624721954,-0.001115396492995056
2.8833333333333333,-0.00138049863745,0.00995675753802,9.75280857086182,0.008520154527841559,0.0018000577585515012,-0.0019178562135205785
2.8916666666666666,0.04229461029172,0.06893192976713,9.81372833251953,0.006062705467065436,0.0003985475186912515,-0.001356357956038903
2.9,0.00222453405149,0.01238157134503,9.8095588684082,0.007747647957461208,0.0023584268017522356,-0.0004063709770140002
2.908333333333333,0.00933443941176,0.01288943178952,9.80221176147461,0.006301431331209877,-0.0033359073105009174,-0.00017166825137014116
2.9166666666666665,0.02966268733144,0.01261765882373,9.76189804077148,0.006268348836746788,-0.001918303281285564,-0.0013599342380848296
2.925,-0.01039296295494,-0.00929158180952,9.74964046478271,0.00853043630621418,-0.002716292454197863,-0.0015544023440491775
2.933333333333333,0.01165198162198,-0.00607991637662,9.6927604675293,0.008812974291182229,-0.0008775646343434321,-0.0009450695261932215
2.941666666666667,0.04645056277514,0.01707383617759,9.7068510055542,0.0073533466722775125,-0.0004738758688637895,-0.0003473599500789709
2.95,0.00984946452081,0.03063562698662,9.72129249572754,0.006520934061681297,-0.0005610511246979395,-0.002891536776303602
2.9583333333333335,0.01923385262489,0.01012842729688,9.76203441619873,0.008438790275201702,-0.0001448450794742236,-0.0018686803198138412
2.966666666666667,0.01918374747038,0.02175895124674,9.75996685028076,0.0065218281972112685,-0.0002311262485423788,-0.0015217674374998552
2.975,0.01547159906477,0.04452644661069,9.77229976654053,0.008380675106789172,0.0007293666116501337,-0.0003902770901311199
2.9833333333333334,0.37428259849548,0.06379327923059,9.7783899307251,0.007911269557973501,-0.0005449573028336353,0.036907110038862094
2.9916666666666667,-0.01186617091298,-2.3400731086731,9.75809383392334,0.02632448392867357,-0.004160273741624092,0.28897967646352546
3.0,-0.17271773517132,-6.31954336166382,9.69708824157715,0.02652945162525807,-0.004883157090458416,0.16892692117054578
3.0083333333333333,-0.41629174351692,-6.51986312866211,9.56100749969482,0.017684737863428012,-0.002947418426411336,0.02481880338855923
3.0166666666666666,-0.29840046167374,-4.21893453598022,9.64924430847168,0.004574019743805759,0.003892264548759131,-0.0724136054038026
3.025,0.21835304796696,-1.80405914783478,9.8748779296875,0.012237396857968682,0.0016753300132990212,-0.10132538986278558
3.033333333333333,-0.0003914066474,-0.6485543847084,9.77945423126221,0.041911868000961146,-0.006494335740294082,-0.12967927536291068
3.0416666666666665,-0.25851631164551,-1.39783382415771,9.74856472015381,0.03961446711946908,-0.004264436369685507,-0.158974654887406
3.05,-0.07513471692801,-0.22866913676262,9.77559661865234,-0.00813054862452519,-0.0008051420620970322,-0.1919492663592514
3.058333333333333,0.19884689152241,3.05503821372986,9.68484592437744,-0.03769817707353489,-0.002846385272704993,-0.18316199989496687
3.066666666666667,0.0062581114471,4.74046230316162,9.69811058044434,-0.022547551420020313,-0.0038129130113220334,-0.1284324415971844
3.075,0.14806365966797,4.8881778717041,9.7387638092041,-0.002038560608962147,-0.0011082437988660509,-0.055438562520177856
3.0833333333333335,0.36000972986221,3.37800884246826,9.78059005737305,0.020921843457932948,-0.0031481453510490234,0.01677721994890226
3.091666666666667,0.20762595534325,1.85905826091766,9.69655323028564,0.03254834133045929,-0.008355415648028173,0.05181765796188975
3.1,-0.02481845580041,0.17380884289742,9.61208152770996,0.012804708426804538,-0.00805231462646349,0.05287002271139147
3.1083333333333334,0.11857835948467,0.66765826940536,9.61102676391602,-0.009371567128339848,-0.006165304788357988,0.057569890340568315
3.1166666666666667,0.07144437730312,1.21596562862396,9.59271812438965,0.00016116250023968378,-0.004998049604954653,0.06383801447309816
3.125,-0.07636495679617,0.18901391327381,9.63201904296875,0.016300212427560835,-0.0035022110575289923,0.08894895623026598
3.1333333333333333,-0.02391119301319,-0.95516484975815,9.6500244140625,0.026702238765139105,0.0016941064693185152,0.0902458657468642
3.1416666666666666,0.07398597896099,-1.56193149089813,9.73976993560791,0.03280316631548242,-0.002326462626887631,0.06616492650841968
3.15,0.19636355340481,-2.34745526313782,9.79007244110107,0.023788792547457485,-0.005995424239135379,0.03901049131256347
3.158333333333333,-0.59675455093384,-1.77339005470276,9.99288654327393,0.0058700257621981805,-0.013980231893154647,0.0022797454758514218
3.1666666666666665,0.20550118386745,-0.56079006195068,9.60565280914307,-0.0002691257407069435,-0.0016384482230562079,-0.00988031203973449
3.175,-0.22739639878273,-0.26474097371101,9.73155117034912,0.015094064689269384,-0.0009526692880870374,-0.010455221940055314
3.183333333333333,-0.05687329545617,-0.61759096384048,9.70328330993652,0.018283788902911526,-0.004942615282686382,-0.026005505889703927
3.191666666666667,-0.03974156826735,-0.34895238280296,9.55195045471191,0.014277746518213856,-0.005658793395268317,-0.027564376830808875
3.2,-0.09249600023031,0.01251462846994,9.61459350585938,0.015265285141415428,-0.0004305117910838076,-0.028403493117211475
3.2083333333333335,0.15390658378601,0.1444481164217,9.67650413513184,0.012235608586908567,0.005730097973009286,-0.03396930213899006
3.216666666666667,0.07192898541689,0.39836329221725,9.72533416748047,0.0056496288961967915,0.004034427156624517,-0.021720502582307052
3.225,0.05196540430188,0.87149524688721,9.58709144592285,0.007255442212703502,0.005210176107414663,-0.017302280883162713
3.2333333333333334,0.04992684349418,0.82494455575943,9.60654735565186,0.016164755316022142,0.010554691006769708,0.0005581453142626006
3.2416666666666667,-0.01730257458985,0.26110741496086,9.58432197570801,0.015293450150537636,0.007166478588281285,0.004350046595758616
3.25,0.0540610216558,0.18266917765141,9.60443782806396,0.010991015621568286,0.010229237117102627,0.003172510154131269
3.2583333333333333,0.24952693283558,0.17846342921257,9.71944046020508,0.010780452165802836,0.006672932420451537,0.009256002581787196
3.2666666666666666,-0.04925447702408,0.15257729589939,9.74287986755371,0.008063266356297739,0.00573278089974798,0.00798413822270607
3.275,0.09531163424253,0.42359134554863,9.75385284423828,0.008375309253311607,0.006030964956120389,0.006578157695307075
3.283333333333333,0.43969956040382,0.38408622145653,9.89687347412109,0.0150238768706809,-0.0018230810982644864,0.019632542675792914
3.2916666666666665,-0.06260167807341,-0.18698962032795,9.8323335647583,0.01672804197460091,-0.010175366361677348,0.015074841035447576
3.3,-0.17142502963543,-0.29559123516083,9.71095752716064,0.011487466299461853,-0.011349773589023752,0.009460082904773992
3.308333333333333,0.02694476023316,-0.13109014928341,9.90218830108643,0.009648515075762169,-0.009693890763428943,0.007381063833411823
3.316666666666667,0.30511167645454,0.02725233137608,9.84782695770264,0.009915853797016719,-0.016786383927825173,0.0010351507550094127
3.325,-0.49253046512604,0.14448027312756,9.83422946929932,0.010505515113063142,-0.010559384828191031,0.004471644606581546
3.3333333333333335,-0.06493350863457,0.06218681484461,9.72344589233398,0.013324631332696204,-0.0033037202519394936,0.007290760306066172
3.341666666666667,0.15859296917915,-0.21706023812294,9.8162841796875,0.013887022295299176,-0.005287739633865947,-0.0021838526911827794
3.35,-0.0902333855629,-0.24789603054523,9.69519138336182,0.011379950533125634,-0.0003853594422437102,-0.005249740174210584
3.3583333333333334,-0.12327954173088,0.06664314121008,9.5788516998291,0.009889029731115336,-0.0037530077513290823,-0.012899258967880658
3.3666666666666667,0.22434176504612,0.2401566952467,9.66839027404785,0.012154245894714885,3.867006130292905e-05,-0.0036542088961507967
3.375,0.07884579151869,0.06719380617142,9.69914054870605,0.013659024497069426,-0.0014225217746307145,0.004403245059053177
3.3833333333333333,-0.01028592884541,-0.05421129614115,9.65693855285645,0.012978164477849987,-0.009590623571269195,-0.004927861786366169
3.3916666666666666,-0.09551148861647,-0.10477486252785,9.59450244903564,0.01154625454022819,-0.000226208698182746,-0.008314286453943259
3.4,0.25234514474869,-0.07976134866476,9.60373592376709,0.01146846526926256,-0.0010966202970498667,-0.005011460077459431
3.408333333333333,-0.14559580385685,0.12197752296925,9.72409725189209,0.0091525106854105,0.0020618070924460813,-0.016296413261818264
3.4166666666666665,0.09426731616259,0.30335921049118,9.5168571472168,0.012150223065052581,0.0029007015354494316,-0.0016053662487417258
3.425,-0.46007084846497,0.00688818795606,9.80337905883789,0.013842763886933496,0.009174191521456834,-0.005556864545586002
3.433333333333333,0.22501413524151,-0.15796338021755,9.82412910461426,0.013577215517333497,0.015083784471342763,-0.0003160662793339799
3.441666666666667,-0.09592677652836,0.02758851461112,9.80169105529785,0.011010685562932164,0.009637786489698867,-0.004557702160493945
3.45,-0.18185387551785,0.22377669811249,9.8587703704834,0.014256286225195428,0.011280256762194293,-0.0126256618180644
3.4583333333333335,0.51428937911987,0.03660109639168,9.9261646270752,0.012819011474393285,0.007378381946970172,-0.004929203249735603
3.466666666666667,0.12537503242493,0.0556276589632,9.92674446105957,0.010735747469895082,-0.006323113727702038,-0.008224876021830361
3.475,0.02879734523594,-0.00469226483256,9.78950977325439,0.012745695481821251,-0.006779107243567103,-0.004444151109366967
3.4833333333333334,0.26810276508331,-0.08038356155157,9.87710189819336,0.011003980846828385,-0.017004099427533694,-0.0027520570951769094
3.4916666666666667,0.30639201402664,0.0489898212254,9.61867809295654,0.007069468784386027,-0.020848304841738573,-0.0005744628325558375
3.5,-0.39863508939743,0.32662028074265,9.587327003479,0.008634599714498507,-0.02260030073495545,-0.009450694221634299
3.5083333333333333,0.19810520112514,0.04893970862031,9.59516048431396,0.013851257914394607,-0.011662711661864809,-0.0020331956657446484
3.5166666666666666,-0.01479207910597,0.00030757224886,9.6302661895752,0.012162739922175998,-0.012610016786957435,-0.0038759472255216216
3.525,-0.41751143336296,0.06655720621347,9.49974822998047,0.009403531303204626,-0.0039546285514224355,-0.012322114508957647
3.533333333333333,0.21602301299572,0.38975125551224,9.43143081665039,0.008900596452235012,0.006555804827204503,-0.0036019040482374223
3.5416666666666665,0.32667034864426,0.3615118265152,9.7377872467041,0.013226948456447316,-0.00036367740335380643,0.003786983601099405
3.55,0.08948922157288,0.12563969194889,9.5768985748291,0.01173446408759385,-0.0032223559992996358,0.01215737510899565
3.558333333333333,-0.54790776968002,-0.0137835284695,9.73345279693604,0.010527420653326252,0.0016856121817830974,0.0016158719511082074
3.566666666666667,-0.32495081424713,0.08101484179497,9.94790267944336,0.008408839075613987,0.013653215476941618,-0.05841727907110708
3.575,-0.12866334617138,1.23165094852448,10.14071083068848,0.008014091502888393,0.02734420414887565,-0.07893253273199065
3.5833333333333335,2.17065596580505,1.94155240058899,9.91634559631348,0.014731952803316201,-0.01187238046195168,0.07680746334016192
3.591666666666667,-1.75198590755463,-0.16775280237198,10.2311372756958,0.02587563517467053,-0.019593429577877065,0.03575461043237341
3.6,-0.76621812582016,-0.61947119235992,9.54705142974854,0.009734795253296907,0.016639077830030085,-0.03196963434499033
3.6083333333333334,-0.11054885387421,0.566222012043,10.15447616577148,-0.002654599183219275,0.03235164399741617,-0.06958063034352807
3.6166666666666667,1.02819228172302,2.41075325012207,10.49208641052246,-0.0018767275395842732,0.02091201056784562,-0.05582035162957596
3.625,0.16075982153416,2.76361012458801,10.38122463226318,0.022767280935303294,0.0007883775410573862,-0.023909720866893087
3.6333333333333333,0.53086674213409,1.50698328018188,10.16459369659424,0.024577841405366774,-0.005803191862107588,0.022827628581723398
3.6416666666666666,3.15999531745911,0.09359540045261,9.41464900970459,0.013916976615778716,-0.05246432757002067,0.2204714553178911
3.65,-0.27412813901901,-3.26912355422974,8.31454467773438,0.016961412908389446,-0.15155495493239077,0.3434289703460905
3.658333333333333,-3.2104115486145,-6.4249210357666,7.28317832946777,0.030963546180618154,-0.07224954635827528,0.1390577719115713
3.6666666666666665,-2.48184943199158,-6.34227323532104,7.77583789825439,0.02526004132750947,0.0210295828881889,0.004131437740742862
3.675,0.29862114787102,-3.57939672470093,9.03799438476562,0.006485170721073947,0.06016905650189084,-0.06223555715568377
3.683333333333333,1.60733151435852,-0.96218073368073,9.91009140014648,0.03870560097964145,0.04668057002193818,-0.09300797159381836
3.691666666666667,0.42854949831963,-2.03172922134399,10.09805583953857,0.06943198434280955,0.023671665474359057,-0.12542198765620213
3.7,-0.08960434049368,-2.26650214195251,10.08111095428467,0.02456734272500686,0.019174543466732006,-0.1850939568182512
3.7083333333333335,-0.48291322588921,0.93787401914597,10.1912202835083,-0.04082441194290849,0.02355006928405626,-0.22778770810931348
3.716666666666667,-0.30736780166626,4.97418642044067,10.11695384979248,-0.04366364543174473,0.026185891361070107,-0.19609121422362447
3.725,-0.32394620776176,5.53166437149048,10.40660285949707,-0.016207003870002585,0.029047476677711688,-0.11420007596812394
3.7333333333333334,0.64943516254425,4.9720196723938,10.80063629150391,-0.0010742678190587508,0.014475792076558676,-0.018222762982651176
3.7416666666666667,0.8062207698822,3.46093058586121,10.71676921844482,0.032903082710036106,-0.008019679459839689,0.045944505586154025
3.75,0.35400366783142,0.98654991388321,10.55334281921387,0.04185285401568064,-0.023767112751708543,0.06632229020051887
3.7583333333333333,0.21903419494629,-0.70072448253632,10.37081241607666,0.00011645724354664672,-0.030335660180550627,0.055707916297304254
3.7666666666666666,0.3009968996048,0.86292880773544,9.67420768737793,-0.03744067020207028,-0.03496086775304297,0.0522705285052577
3.775,0.14749683439732,2.81920623779297,9.18845367431641,-0.011045778952077711,-0.022640982601200902,0.0845620308351194
3.783333333333333,-0.08885186910629,-0.19846062362194,9.30612087249756,0.049489634889050955,-0.01942131238945766,0.11105774561891207
3.7916666666666665,-0.0862590521574,-2.19926881790161,9.26554870605469,0.02642684918307352,-0.02293022686271873,0.10578183208476181
3.8,-0.03528380766511,-1.84920048713684,9.26192760467529,0.019540228773913416,-0.013204821332859086,0.07098929691855776
3.808333333333333,-0.20093758404255,-2.26295828819275,9.3606653213501,0.0234941845130567,-0.01574609078820203,0.03319120345046919
3.816666666666667,-0.48365399241447,-1.94313478469849,9.4618673324585,-0.0027730682398357425,-0.005779050722944901,-0.0047941934660362
3.825,-0.2300568819046,-0.06918945163488,9.53389549255371,-0.010123061253689843,0.002743338883647455,-0.018133798838080348
3.8333333333333335,-0.00723152421415,0.40121009945869,9.56713485717773,0.0244794896179533,0.008994478082146894,-0.008587436796068834
3.841666666666667,-0.04947113990784,-0.99804544448853,9.75579452514648,0.02756504886286511,0.0031099224875482316,-0.017313011549820623
3.85,0.05584351718426,-0.77101361751556,9.82129001617432,0.006919258176527121,0.0026642107500557863,-0.03600070732304283
3.8583333333333334,0.1274493932724,0.52813357114792,9.85179805755615,0.00852060133553224,0.0002076559711015604,-0.03951230576333999
3.8666666666666667,-0.0343731418252,0.37098121643066,9.92362022399902,0.012958939783730965,-0.0010461034601223034,-0.04001748245499284
3.875,-0.31659895181656,0.59683847427368,9.91744136810303,0.003257002580754676,0.010761676880117711,-0.03704144570991048
3.8833333333333333,0.34960949420929,1.29336273670197,9.73401069641113,0.006629568147615827,0.011316022183396252,-0.01270613297547133
3.8916666666666666,0.40728288888931,0.75166362524033,9.77906608581543,0.020596835855807766,0.00034713644870576634,-0.002169099845048502
3.9,0.23910523951054,-0.20051564276218,9.66837596893311,0.016145086414955656,-0.008690257700686509,0.002482707219165426
3.908333333333333,-0.07734368741512,0.12451668828726,9.66082286834717,0.0035726220198885996,-0.009128816874087276,-0.0024029086139633437
3.9166666666666665,0.0684165880084,0.41864895820618,9.76214981079102,0.00818531143488583,-0.006793412891899243,-0.00920615673661883
3.925,0.01537861209363,0.18298402428627,9.71895408630371,0.011476962417615675,-0.0035165167058611325,-0.0038312417493907816
3.933333333333333,0.3298100233078,0.2109659910202,9.58652591705322,0.0086980807363886,-0.0007032138626006533,0.010979390299231798
3.941666666666667,0.3421419262886,0.32677763700485,9.63022327423096,0.012821695441429373,-0.012858577101635031,0.007110150130482869
3.95,0.20586597919464,-0.26659360527992,9.58116149902344,0.017606501264623098,-0.014879703108058577,0.006760554581504319
3.9583333333333335,-0.5535084605217,-0.43242511153221,9.60877895355225,0.005318363385658684,-0.011959107967325711,-0.005964130535881012
3.966666666666667,-0.50236546993256,0.36282107234001,9.69714450836182,0.005486454623523787,0.009935524778677813,-0.012543853878625865
3.975,0.04574242979288,0.42373442649841,9.69606494903564,0.017002532739798702,0.014404261234154931,-0.0010295624729650624
3.9833333333333334,0.06348147988319,-0.11830087006092,9.82252025604248,0.01800482485932031,0.010921721418361164,0.005980000791353536
3.9916666666666667,0.11622654646635,0.03165848180652,9.76041889190674,0.009752456380572764,0.0032527558270983364,0.002582176545954299
4.0,-0.05650746077299,0.09403842687607,9.77375221252441,0.014359110250705107,0.003620009382460917,0.0030799697275145166
4.008333333333334,-0.14156906306744,-0.29139250516891,9.89735317230225,0.013054163397160892,0.0063005371956799065,-0.0005395927172183925
4.016666666666667,-0.00455617625266,-0.07295152544975,9.85078811645508,0.007427558360825517,0.013084564005182502,-0.010944745278222758
4.025,0.3468052148819,0.29186454415321,9.76888847351074,0.010423705093029997,0.0007539544284663502,-0.00807734886085893
4.033333333333333,0.45098674297333,0.01949149742723,9.7412281036377,0.01622488345971174,-0.00841666107101886,-9.11987519369888e-05
4.041666666666667,0.09330865740776,-0.11440944671631,9.66501331329346,0.010051758236394875,-0.015925808388701185,-0.007788106679935709
4.05,-0.33922356367111,0.16920764744282,9.71760177612305,0.007482098027415209,-0.013129043996873306,-0.0011337256211750857
4.058333333333334,0.01402672473341,0.03052118048072,9.64572334289551,0.012797555342564075,0.00018664453385904724,0.003256108445224531
4.066666666666666,0.09995416551828,-0.11861571669579,9.78800010681152,0.012691380519448509,-0.0041674260456414655,-0.011689982015308261
4.075,0.35428747534752,0.22678089141846,9.78571128845215,0.008268239774517462,-0.006734625691430299,-0.010318200221376061
4.083333333333333,0.03820333257318,0.38042396306992,9.66636657714844,0.013479982049518509,-0.009911159975595394,-0.0016044723732860598
4.091666666666667,-0.4445995092392,0.12443090230227,9.64474201202393,0.014594706380419997,-0.0029903356314820617,-0.003703831857622345
4.1,-0.20590889453888,-0.00263939914294,9.54551887512207,0.013116749763372229,0.01280649565756726,-0.0001452921309846084
4.108333333333333,0.21260383725166,0.02997035346925,9.62667655944824,0.013430581451594821,0.006319760329352929,0.0019145030752456009
4.116666666666666,0.38882884383202,-0.02994890883565,9.73064136505127,0.010795205662122873,0.0017853050424543758,-0.006296737509788553
4.125,0.10295802354813,0.09578371793032,9.89792537689209,0.008456225657963392,-0.007468016563151409,-0.0048089459220590205
4.133333333333334,0.04100724682212,0.22114445269108,10.01467418670654,0.008719091620973129,-0.006543063786012747,-0.0011636782511716486
4.141666666666667,0.17147490382195,0.06388216465712,9.77234935760498,0.014123736744612555,-0.008937030784601384,-0.00648539438499368
4.15,-0.03166575357318,-0.12805713713169,9.74362277984619,0.00965723276714284,-0.01578230457754067,-0.0059216603985754466
4.158333333333333,-0.04489835351706,-0.02600787766278,9.5568208694458,0.004507408987486113,-0.01499951310789587,-0.004320317499644633
4.166666666666667,-0.75805115699768,0.29167148470879,9.6113109588623,0.009674891813824261,-0.008014761974498807,-0.010011301074366201
4.175,-0.1086515635252,0.27429023385048,9.68560123443604,0.01555542301831462,0.015376154826249537,-0.004211236866093553
4.183333333333334,0.46700197458267,0.16265565156937,9.8883113861084,0.013943351273246201,0.005635322727716043,0.00020407957527308212
4.191666666666666,0.5348824262619,0.06821666657925,9.86579513549805,0.01251322960668452,-0.004033309877323424,-0.0024485079655498505
4.2,0.05843137577176,0.05483390763402,9.7202615737915,0.009559328307568829,-0.011176094914355788,-0.004342446963901778
4.208333333333333,-0.24737392365932,0.08152810484171,9.59078216552734,0.00949539995783927,-0.0018490099883385067,-0.004427609862135423
4.216666666666667,0.30976137518883,0.17811287939548,9.43964958190918,0.007316688675991583,-0.0016782358237345347,-0.005626605556483805
4.225,0.29071998596191,0.17390002310276,9.61213302612305,0.008796433564099293,-0.005996765702504812,-0.004205871792838902
4.233333333333333,0.2401280850172,0.19888480007648,9.68477725982666,0.010771960218936331,-0.014921727998119463,0.004881145675627351
4.241666666666666,-0.3136160671711,0.15515208244324,9.93304443359375,0.011004874462209744,-0.0072167733217349435,0.00677039059248365
4.25,0.19845563173294,-0.03624345362186,9.7798318862915,0.011642370728742085,-0.0059498248875488715,0.000878235105953845
4.258333333333334,0.01077933423221,-0.0972858145833,9.7776575088501,0.008719986276651883,-0.006189892215062749,-0.0006826495906510768
4.266666666666667,-0.03275286778808,0.0422232337296,9.626145362854,0.007349770130157283,-0.010078356557781916,-0.004842027376224894
4.275,-0.75976783037186,0.34036803245544,9.54948139190674,0.01207489305690609,0.0013456287197898416,-0.008530883113904859
4.283333333333333,-0.29741516709328,0.23633714020252,9.58742809295654,0.017600912787523192,0.020611366728505463,-0.001666165514227495
4.291666666666667,0.55022531747818,-0.01029294077307,9.83396434783936,0.016152462122818456,0.01514793440439727,0.004879133220498895
4.3,0.58586752414703,-0.24283888936043,9.89394664764404,0.009787772393340652,-0.003157533253965803,-0.004002463241834217
4.308333333333334,0.12791429460049,-0.04548492655158,9.75702857971191,0.006514229345577518,-0.014366488039162342,-0.0028665022818338565
4.316666666666666,-0.50260883569717,0.15952269732952,9.72154998779297,0.009305179515791153,-0.00321967359270955,-0.0026268817620106605
4.325,0.38702601194382,0.08241505920887,9.51443290710449,0.01141549229040786,-0.00017345648992088126,-0.011504455394681472
4.333333333333333,0.23651590943336,0.20895600318909,9.6204309463501,0.011507361985339899,-0.005868908482897088,-0.0069896706993325545
4.341666666666667,-0.40078809857368,0.31689956784248,9.67660903930664,0.014061820329862668,-0.0004488409192640117,0.0036025742597735316
4.35,-0.63669723272324,0.0959757566452,9.7247486114502,0.019300384070022054,0.022409191879012413,0.005184247217340642
4.358333333333333,0.44128003716469,-0.1214768961072,9.67620658874512,0.016061487083565,0.02550726381985842,-0.00273640972340103
4.366666666666666,0.50332409143448,0.05298826098442,9.90924835205078,0.010428175250531415,0.005720709289869419,0.0022663337029749475
4.375,0.21636635065079,0.11504632979631,9.84420776367188,0.008578270736551482,-0.0034749407040855374,0.003592739029017288
4.383333333333334,-0.51512622833252,0.29693600535393,9.89221858978271,0.011472043891977401,0.00011422196161264742,-0.00080514193205988
4.391666666666667,0.51526969671249,0.03675843402743,9.7541446685791,0.014553578226632303,-0.0008449295977567834,0.005214646264916255
4.4,0.26718014478683,-0.07566276937723,9.75797271728516,0.011349550965401415,-0.013966374092810577,0.008024373281261014
4.408333333333333,-0.55983173847198,-0.02281007729471,9.75106239318848,0.00950232937816,-0.011952401170627494,-0.005774580045294698
4.416666666666667,-0.40740448236465,0.1919894516468,9.61735534667969,0.009510376077781824,0.008282769606917768,-0.005625264093114546
4.425,0.32149884104729,0.21606592833996,9.78668403625488,0.0122633273084887,0.005519089269998979,0.0032646024726856434
4.433333333333334,0.33669862151146,0.08126344531775,9.77908802032471,0.01379895176610971,4.314058453407761e-05,0.002422802219246779
4.441666666666666,-0.36656892299652,0.26945471763611,9.68923950195312,0.013552179722492057,-0.00473920595145861,-0.0005731216292607073
4.45,0.22783234715462,0.12777122855186,9.62211894989014,0.013624153731546046,0.010551114464649649,0.005650522511578152
4.458333333333333,0.37968721985817,-0.00554345315322,9.90153026580811,0.012669251315265669,-0.004146861448599009,0.0020508543223144394
4.466666666666667,0.49004843831062,-0.00251064798795,9.93019866943359,0.004988438298192446,-0.01529814605255357,-0.007551615374393455
4.475,-0.54312252998352,0.45162335038185,9.92859649658203,0.006847730975163812,-0.013530946214285187,-0.0053883275403274365
4.483333333333333,0.26655068993568,0.19525830447674,9.7603759765625,0.009481988445037275,-0.007123337459216699,0.0040641562527385005
4.491666666666666,-0.20454289019108,0.20354150235653,9.903733253479,0.01000392224561157,-0.0107824651410799,-0.008799786442299791
4.5,0.51658546924591,0.26719444990158,9.77445316314697,0.008281875471387798,-0.0045559138894338295,-0.0018789624882979174
4.508333333333334,-0.48690557479858,0.38971507549286,9.88703346252441,0.008673268605466892,-0.023370129059934762,0.01892821146887259
4.516666666666667,0.0442403331399,-0.1976902782917,9.43651008605957,0.006992128921854474,-0.009582129543808084,0.010357990552834933
4.525,0.14208425581455,-0.26340374350548,9.36529731750488,0.006085058335168008,-0.010474892921716408,-0.006906070847793292
4.533333333333333,-0.17571674287319,0.08214324712753,9.4852991104126,0.00421146026993898,-0.006701320053196085,-0.006718308108118486
4.541666666666667,0.35720583796501,0.24461291730404,9.31247901916504,0.011044214344937327,0.0005286398820681751,1.1846898550267828e-05
4.55,0.28287348151207,-0.07762980461121,9.6319751739502,0.015081545751551358,-0.004456221158799702,-0.005308751038599085
4.558333333333334,0.08612738549709,-0.18907825648785,9.60288524627686,0.013088138466708123,-0.004749040922140374,-0.0024060375681699804
4.566666666666666,-0.78274273872375,0.20003640651703,9.57963085174561,0.010763017823338534,0.010222084032862165,-0.004561726030453466
4.575,0.16417935490608,0.12311494350433,9.64668273925781,0.012969670450388875,0.02008675104148969,-0.009662597580323184
4.583333333333333,0.65884119272232,0.15091067552567,9.98177051544189,0.009113170802683094,0.007523898213259144,-0.014518484837486757
4.591666666666667,-0.12418050318956,0.30642780661583,10.110107421875,0.011477407664860355,-0.0024677310992230477,-0.0025312126412617504
4.6,-0.11888743191957,0.21944919228554,9.93036937713623,0.013233430548928758,-0.0034454350118169825,-0.00031248980223232505
4.608333333333333,0.50574904680252,-0.18806272745132,9.98747253417969,0.008396097514273797,-0.014250701909284744,-0.00577189867900183
4.616666666666666,-0.13393703103065,0.01122312899679,9.95189952850342,0.004717300931343936,-0.022443163827667645,-0.012375090608704172
4.625,-0.32371607422829,0.33663401007652,9.60435199737549,0.005629511106845015,-0.009507916814962686,-0.005603358552851262
4.633333333333334,0.14868614077568,0.29591310024261,9.71127223968506,0.00834043900793701,-0.007564132231516696,0.003476505311225921
4.641666666666667,0.03919027000666,0.07257298380136,9.67901992797852,0.00788936401771022,-0.01188579093445646,-0.008938373808416819
4.65,-0.68004941940308,0.20788307487965,9.49105739593506,0.010875674738935368,0.009939992855584796,-0.004447727651487199
4.658333333333333,0.23551450669765,0.0981083959341,9.46600818634033,0.01403969216597722,0.01583729157196965,-0.0008312945510722083
4.666666666666667,0.67542898654938,-0.01048592571169,9.86925029754639,0.012976152542870137,0.006253373236952843,-0.005980894926883681
4.675,0.38392862677574,0.01253919210285,9.92695713043213,0.006661532322480606,-0.0098847832375333,-0.005997211990046885
4.683333333333334,-0.27846017479897,0.17267678678036,9.80155467987061,0.00761532058035189,-0.010432870112250131,-0.003670750143382342
4.691666666666666,0.10618387162685,0.02904783189297,9.77953720092773,0.00766270716270112,-0.015249862733930801,-0.004114673089665889
4.7,-0.18535193800926,0.03235261887312,9.81608963012695,0.007926019933401713,-0.007262818440714913,-0.009519541097001958
4.708333333333333,-0.44504964351654,0.22387702763081,9.74563407897949,0.012267351178448398,0.008417779910765956,-0.009145358641467429
4.716666666666667,0.48679393529892,0.1822115033865,9.75795745849609,0.012884729135480175,-0.0008368826380606556,0.0011482548033898054
4.725,0.34714904427528,0.02403343468904,9.74901580810547,0.012126081925889895,-0.009802971136905543,0.0022269930400244534
4.733333333333333,-0.46965548396111,0.12166243046522,9.47159481048584,0.008221969951320542,-0.010850863648311051,-0.011360504255681664
4.741666666666666,-0.20743960142136,0.31663489341736,9.37556743621826,0.010417221960251164,0.008332615972234919,-0.00596345954412199
4.75,0.56973111629486,0.20836946368217,9.71052837371826,0.010489869041658786,0.0013190290980309297,-0.002037666473432002
4.758333333333334,0.11119809746742,0.12581850588322,9.78481769561768,0.01146041960993813,-0.0026550457308356515,0.0006471088086474905
4.766666666666667,-0.23646605014801,0.14667604863644,9.54977512359619,0.01198414272186976,0.008437672475751999,-0.008060807613627386
4.775,0.03456968814135,0.20135252177715,9.72166442871094,0.013291995125775186,0.008842925490769944,-0.001377369230734889
4.783333333333333,0.26635020971298,0.06129261851311,9.80136299133301,0.014528542431791035,0.006609898206252123,0.006364466065558075
4.791666666666667,0.0914490967989,0.03088597580791,9.69932651519775,0.011246953724703296,0.008902161059375396,0.003149933882183443
4.8,0.27544882893562,0.15427966415882,9.82490158081055,0.00911138253162298,-0.004802687493497312,-0.0029317718348583705
4.808333333333334,0.14463049173355,0.07666417211294,9.81990242004395,0.00838290914524275,-0.010929544454063255,0.0024393432064040202
4.816666666666666,-0.23992066085339,0.06766589730978,9.67428493499756,0.01173133487331291,0.0013047234496987893,0.0011066790616885151
4.825,0.04374686256051,0.07080593705177,9.6668872833252,0.009182014557158924,-0.004976143544542936,0.0009647397926498053
4.833333333333333,-0.06627824157476,0.10553304851055,9.62761211395264,0.013714683523554648,0.00044079399207708463,-0.006179386252621788
4.841666666666667,-0.3688650727272,0.03706585615873,9.48040580749512,0.01413938281601674,0.01564505711434725,-0.004621854694291844
4.85,0.05517702922225,0.11518938094378,9.64665985107422,0.01344153370157768,0.013403982089910386,-0.0022238638257436865
4.858333333333333,0.41344863176346,0.22400557994843,9.85788345336914,0.011900767054398837,0.0057578151341434215,-0.0021378060117569833
4.866666666666666,0.03179425746202,0.05725846812129,9.87300395965576,0.011426890827932969,0.002771056304855895,-0.0025289770423623454
4.875,0.26247358322144,0.00707416189834,9.82986640930176,0.008120935757316983,-0.004054768089747417,0.0014079925924159941
4.883333333333334,0.13188418745995,0.07165709882975,10.06063270568848,0.005731886244069401,-0.009299143710851958,-0.001045209389610909
4.891666666666667,-0.36151847243309,0.17493008077145,9.95648670196533,0.011144354403410743,0.0030097824290746416,-0.009832029761409115
4.9,0.07863786816597,0.16571015119553,9.802077293396,0.007932503586328979,-0.004180389970529867,-0.013384311108249294
4.908333333333333,0.27450466156006,0.25706601142883,9.86467838287354,0.00915206335757121,-0.005636217383394797,-0.009578774585012974
4.916666666666667,-0.16692589223385,0.28471174836159,9.81854343414307,0.010725018883831781,-0.007176090415192101,-0.003167815812561336
4.925,0.1614825874567,0.03491302579641,9.7597541809082,0.0076946723778632915,-0.014445168844914723,-0.003827218659654174
4.933333333333334,0.49657180905342,0.02956270053983,9.84402179718018,0.0011795485066441722,-0.024720674224768268,-0.006411630024284964
4.941666666666666,-0.52777254581451,0.25221639871597,9.74731540679932,0.004596819939747794,-0.01803678903418509,-0.002536130126602807
4.95,-0.0373950637877,0.04929739236832,9.48183727264404,0.006685226133804004,-0.009576316362491054,0.0004171002132632363
4.958333333333333,0.12636928260326,0.03059986233711,9.71619987487793,0.007424428106247534,-0.0028334205675936788,-0.0002499024607421686
4.966666666666667,-0.07172870635986,0.0645114928484,9.68308258056641,0.01102499069111552,0.0035891630070458407,-0.009477518287535682
4.975,0.22326168417931,0.03790291398764,9.45500659942627,0.0117825216617021,-0.0033598247857438727,-0.0068070485887695795
4.983333333333333,0.51959675550461,-0.04137910157442,9.52437496185303,0.006893553470521267,-0.006880141437570664,-0.001959879153024006
4.991666666666666,-0.07278027385473,0.18294125795364,9.61372756958008,0.006448512204639235,-0.010308588914613852,-0.0028557726554733383
5.0,0.11101236194372,0.11048254370689,9.50024890899658,0.006040129455191914,-0.0070071045216482455,-0.00873764532333313
5.008333333333334,-0.25723081827164,0.13573974370956,9.68316841125488,0.007588943322141189,-0.006945858058360163,-0.007627612733258357
5.016666666666667,-0.71787363290787,0.24994894862175,9.6190071105957,0.015715913844100145,0.016807171148489973,-0.008104170846165704
5.025,-0.02784365229309,0.08663775026798,9.53353691101074,0.016993591384498127,0.025889494015311987,-0.006624426998355213
5.033333333333333,0.21693141758442,0.06707220524549,9.97637748718262,0.01566450547238583,0.02078996288851431,-0.009137758229387678
5.041666666666667,0.77462428808212,0.02675878629088,9.78400897979736,0.011551618313111144,0.007195984020475536,-0.009502999329621804
5.05,-0.09576959162951,0.29369592666626,9.89858245849609,0.008618953643094325,-0.00955306987900712,-0.004134343551178375
5.058333333333334,-0.08006892353296,0.28665018081665,9.9263219833374,0.010772852794020476,-0.0029371361278901086,-0.0005994977171370394
5.066666666666666,0.27639299631119,0.15713365375996,9.88223934173584,0.012884284928532712,0.007320265738260423,-0.004303329704796711
5.075,0.36901515722275,0.19337710738182,9.90936279296875,0.007174301623983376,-0.004407045265092966,-0.009053711570157738
5.083333333333333,-0.21263256669044,0.30849495530128,9.85657501220703,0.010661535781347079,-0.0012200068390072166,-0.005589500232358586
5.091666666666667,0.13749189674854,0.15628243982792,9.6779670715332,0.009102217512402842,-0.0008552118962780118,-0.0005838508655097689
5.1,0.03137944638729,0.10222860425711,9.86629676818848,0.007452145267381669,-0.016166319923162524,0.004780558289314472
5.108333333333333,-0.01755301468074,0.11036821454763,9.76179122924805,0.0064047006039642355,-0.014540836665291934,0.002256498732293009
5.116666666666666,-0.00301134679466,0.08672822266817,9.55199909210205,0.0051312716377427256,-0.015135865915410536,0.005280140262083589
5.125,-0.21425643563271,0.22326192259789,9.72867584228516,0.008051419970784736,-0.013514404446905033,0.00795128043245993
5.133333333333334,-0.52318716049194,0.30074143409729,9.7529935836792,0.012205433723401295,0.007563684903677407,0.006449182676249648
5.141666666666667,0.88472086191177,-0.19015833735466,9.39371395111084,0.011634322988823043,0.0020495129889821573,0.006979162656296985
5.15,0.57854342460632,-0.14254154264927,9.67784023284912,0.004150660874415885,-0.014467519632422684,0.004697406285763282
5.158333333333333,-0.07517637312412,0.06333839893341,9.54642105102539,0.004857898671994635,-0.010748489031235446,-0.00048549924064299606
5.166666666666667,0.04843187332153,-0.01050027739257,9.46098804473877,0.004620513230922409,-0.013247961421626455,0.001662365568262011
5.175,-0.3676418364048,0.15146860480309,9.71499156951904,0.008232699057532452,-0.003790559883145157,0.00019960904391463336
5.183333333333334,-0.05190818011761,0.14666904509068,9.52961826324463,0.011345973382983791,0.007297911829860458,-0.0023590970132883445
5.191666666666666,-0.21309749782085,0.26416164636612,9.74531173706055,0.012161622642874905,0.001196313157721145,-0.006484723913383266
5.2,-0.13407288491726,0.24705919623375,9.77305793762207,0.01360984860336269,0.011191742026057364,-0.004004251252819853
5.208333333333333,0.61255514621735,0.05993366986513,9.58582496643066,0.011396938588048034,0.004345129370491863,-0.0001439509927080543
5.216666666666667,0.28870305418968,0.21165977418423,9.86155319213867,0.007574860817579997,-0.006349489425466913,0.004699865548582419
5.225,-0.27255907654762,0.32944563031197,9.82155418395996,0.010351281675541934,0.0023302623127788103,0.0008223534558461099
5.233333333333333,0.1331785172224,0.13401557505131,9.73252201080322,0.01047645752885679,0.0031890506211399014,-0.0028615842763441905
5.241666666666666,-0.08315170556307,0.10000395774841,9.93368911743164,0.01039688102712844,0.005650522511578152,0.0020320781263692502
5.25,0.25466266274452,0.00552914757282,9.74512577056885,0.013016610745196031,0.01499169007219378,0.003175638848263427
5.258333333333334,0.19113111495972,0.06413954496384,9.81252765655518,0.008539154517743633,-0.005274998592674191,0.003928699141199806
5.266666666666667,-0.22146637737751,0.21772545576096,9.87598705291748,0.00796849111100467,-0.00926025011566645,-0.0010979615003448224
5.275,0.02765260450542,0.21242527663708,9.77551937103271,0.009186710459174683,-0.00524214080242805,-0.006893106662830588
5.283333333333333,0.00946321152151,0.21932762861252,9.98617744445801,0.007937644735589593,-0.005771897638704439,-0.0048442634952729074
5.291666666666667,-0.32687777280807,0.3534649014473,9.93454074859619,0.012538264361228567,0.0032346499727264073,-0.0025562476558801048
5.3,0.21748216450214,0.14872904121876,9.77177810668945,0.010739771339854601,0.0047921820512051355,0.0007320488231844914
5.308333333333334,0.29062715172768,0.05130734294653,9.92443370819092,0.0073587120056064674,-0.003999333767478971,0.0035882688715156955
5.316666666666666,0.02262444235384,0.0561712756753,9.80146884918213,0.006605427528601922,-0.005425431824155439,-0.0008109536179494835
5.325,0.60048109292984,-0.20846962928772,9.54053211212158,0.004484162504002179,-0.02153139941956003,-7.421075390586407e-05
5.333333333333333,-0.59149718284607,0.18613128364086,9.83097457885742,0.004888298759867639,-0.0173769409398474,-0.0011770898940107958
5.341666666666667,-0.03949084505439,0.03072861395776,9.56307220458984,0.009586374997092726,0.00010304564947130047,-3.9787690078978414e-05
5.35,0.05213027447462,0.13416580855846,9.69677448272705,0.010832310986248265,-0.002839678996155387,-0.00724404263488118
5.358333333333333,0.15955103933811,0.14249169826508,9.60026073455811,0.011158435867674541,0.0032129678363085525,-0.01148254881412097
5.366666666666666,0.31044769287109,0.19218973815441,9.32544040679932,0.007105009501370864,-0.0035256814650069628,-0.009989169789588751
5.375,-0.294418156147,0.28830963373184,9.57283592224121,0.007739153409851312,-0.0024015671505940835,-0.0074420866327801725
5.383333333333334,-0.13275676965714,0.249934643507,9.56616878509521,0.01413424270705334,0.012859248093394053,-0.00614697422976911
5.391666666666667,0.35112607479095,0.10803671181202,9.8022928237915,0.01241711237787323,0.012524852848426398,-0.006590898216350049
5.4,-0.17847058176994,0.2425529062748,10.06002998352051,0.013118314370512788,0.009218674634039463,-0.007371452006500833
5.408333333333333,0.44994243979454,-0.05343889072537,9.80958080291748,0.012052764893020644,0.010352623659059977,-0.007567261445797637
5.416666666666667,0.28590628504753,-0.07853106409311,9.98624134063721,0.008417331542629275,-0.003811571547952599,-0.004346246389718653
5.425,0.15719087421894,0.08880969882011,9.85983657836914,0.0062967369896399445,-0.0094866822664586,-0.005373797187778347
5.433333333333334,0.09155639261007,0.17098155617714,9.66929912567139,0.002468848378524141,-0.01882225926937954,-0.0012669473938888534
5.441666666666666,-0.60985857248306,0.39183259010315,9.76086330413818,0.0060014595239261375,-0.01104711989529836,-0.002414979183544688
5.45,0.047208763659,0.16291315853596,9.53804397583008,0.010372293600423854,0.006035881401164053,-0.0034803055172658833
5.458333333333333,0.13393698632717,0.1666469424963,9.91492080688477,0.00855591786844891,0.0007995537800528568,-0.0065497690222651355
5.466666666666667,0.34249958395958,0.14733426272869,9.8721752166748,0.00763007147592871,-0.006419229916215933,-0.0043082469300632885
5.475,0.42973557114601,0.09421019256115,9.65414047241211,0.004432751531544646,-0.01749987911366824,-0.002621070141139808
5.483333333333333,-0.30602723360062,0.21478556096554,9.91228771209717,0.0031085810241787974,-0.01876369677312754,0.000963622123237255
5.491666666666666,0.27543452382088,-0.02268166467547,9.76002597808838,0.007143902056259156,-0.00984410137128785,-0.001475274080420356
5.5,0.01133725605905,0.08652794361115,9.75305843353271,0.002091089250832231,-0.017482445811501334,-0.008364357003328575
5.508333333333334,-0.62947165966034,0.29053416848183,9.64180374145508,0.008763128446013861,-0.000861694118796604,-0.00665549755783863
5.516666666666667,0.38932237029076,0.00769636128098,9.35428905487061,0.0080737723187387,-0.003424870934923134,-0.003698467044442173
5.525,-0.14409402012825,0.05101407691836,9.74331665039062,0.010979391339529014,-0.0002092206757698952,-0.0027601032746499493
5.533333333333333,0.35370808839798,0.04451929405332,9.48298931121826,0.010185424996278844,3.956416432369872e-05,-0.0006160386392757041
5.541666666666667,-0.20912766456604,0.38102477788925,9.61199760437012,0.007897633340954382,-0.006558710897714321,-0.0019026564296582933
5.55,-0.83106023073196,0.59623235464096,9.89971351623535,0.0169468747536107,0.02156805741584613,-0.005329762443332223
5.558333333333334,0.53218084573746,0.12380988150835,9.56037998199463,0.020674620965584176,0.03237712503950229,-0.0030672286863229347
5.566666666666666,0.63882040977478,-0.02495626918972,9.77428817749023,0.014203983197802535,0.013062211137079931,-0.0014998618972365725
5.575,0.2739038169384,0.06960431486368,9.74308013916016,0.009798949347540633,0.0032916494222838453,0.0001931267888868403
5.583333333333333,0.21483540534973,0.08997575193644,9.74436187744141,0.009424095900247084,-0.004714171196914561,0.0028573375226880263
5.591666666666667,-0.44663065671921,0.18623141944408,10.0030574798584,0.009990735437026527,0.003916182024002087,-0.00119676022548613
5.6,0.3061061501503,0.03514198586345,9.62365818023682,0.010668242578045292,0.002994582905286835,-0.004982402493253253
5.608333333333333,-0.51172894239426,0.19168175756931,9.72827434539795,0.012667464084502944,0.0060492939542634416,-0.009131947128665434
5.616666666666666,0.00401274487376,-0.0281106736511,9.63471508026123,0.013838292689134508,0.018242657628232,-0.007098303224821257
5.625,0.49581360816956,0.04863933101296,9.82347869873047,0.008214817387228865,0.0015778726214899959,-0.005023084359498702
5.633333333333334,-0.06451904773712,0.26979097723961,9.92085647583008,0.008204534568558852,-0.0018910330578792611,-0.005249740174210584
5.641666666666667,0.19384203851223,0.20445686578751,9.82698345184326,0.009042311992335413,-0.00493546219844592,-0.00022442047588660627
5.65,-0.2618941962719,0.30612021684647,10.18269443511963,0.009930605212742145,0.002116123875339128,-0.004471421462810598
5.658333333333333,0.8400656580925,-0.03406899049878,9.90048599243164,0.006714508422227132,-3.442305976341008e-05,-0.002801232208660559
5.666666666666667,0.15240567922592,0.21331188082695,9.89656734466553,0.002900254987833055,-0.02022377484076355,-0.004647560440594915
5.675,-0.23773904144764,0.27172219753265,9.75897407531738,0.002643646673161938,-0.015639247053922223,0.0023342859226640265
5.683333333333334,0.09931007027626,0.16621775925159,9.69584274291992,0.000989104140602018,-0.021659256119019143,0.0023231094886126532
5.691666666666666,-0.32136285305023,0.12176989018917,9.70871734619141,0.0031409922668085614,-0.01687668693502204,0.003080193131359944
5.7,-0.16055282950401,-0.02056436240673,9.32242202758789,0.006955693549190711,-0.0037740194161365245,0.00201397279214593
5.708333333333333,-0.2282400727272,0.13277822732925,9.49298858642578,0.007902104538753367,0.0010385036332099115,-0.004753512119939359
5.716666666666667,0.56597584486008,-0.10539714246988,9.5576000213623,0.009865560624008885,0.006217162048357595,-0.00747047478567333
5.725,0.85417103767395,-0.17007315158844,9.61007308959961,0.003814477358388113,-0.01561197461988416,-0.01249557056000327
5.733333333333333,-0.62029451131821,0.28758004307747,9.81463718414307,0.005319257001040046,-0.00906578213973908,-0.006458123511401442
5.741666666666666,-0.07340962439775,0.30161392688751,9.67019271850586,0.007520097487070747,0.0025497653033245346,-0.00490550943841238
5.75,-0.21696688234806,0.32463192939758,9.85353469848633,0.008848291344247508,0.003636550369618158,-0.007458627880011717
5.758333333333334,0.3393594622612,0.14309257268906,9.60540294647217,0.011372350121045883,0.01368361400436862,0.0008871760711427912
5.766666666666667,-0.13823591172695,0.42299765348434,9.71946048736572,0.009407330468947199,-0.004087850064061899,-0.0007926244897692793
5.775,-0.27207267284393,0.35999542474747,9.79347991943359,0.012823707376409218,0.010010851665932304,-0.006437559434507594
5.783333333333333,0.63151717185974,-0.04433337599039,9.86785316467285,0.011348208981883372,0.004840463289233119,-0.0034923755666984445
5.791666666666667,-0.07458984851837,0.1427850574255,10.25979518890381,0.007564356415585037,-0.0007005317160848717,0.0011026557118776034
5.8,0.58019572496414,-0.09866631776094,9.82718372344971,0.008174583368971313,-0.0021194771436510835,0.0014236394440432648
5.808333333333334,-0.24799631536007,0.10629136115313,10.03023242950439,0.0058655550845479795,-0.013136643368655667,0.0020343133351571987
5.816666666666666,-0.03489156812429,0.07912474870682,9.94383239746094,0.009976876596385067,0.002094442259069882,0.00018955037680393617
5.825,0.87233692407608,-0.09060675650835,9.56394290924072,-0.0010376093026240381,-0.030468431244458805,0.0040610270384577336
5.833333333333333,-2.54366540908813,0.85997200012207,10.28123188018799,0.013673776953092248,0.004801121846059711,-0.015381742263052221
5.841666666666667,2.15958952903748,-0.5535483956337,9.39126396179199,0.02179047089816502,0.05767226807853592,-0.005979330319743123
5.85,0.21624821424484,0.5388445854187,10.37260437011719,-0.009406437893863053,-0.07313559669770155,-0.004684665764720135
5.858333333333333,-1.59939694404602,0.43194615840912,9.56252193450928,0.017281939950039984,0.01662611468536477,-0.011644382663721756
5.866666666666666,2.73396706581116,-0.95977586507797,8.5403881072998,0.0025859767519940875,0.004951332974067226,0.0026923749789549067
5.875,-1.56133341789246,0.99295598268509,10.29547023773193,-0.007604367810220248,-0.04854098778044028,0.001793352262224808
5.883333333333334,0.00818285252899,0.56727051734924,9.06353187561035,0.01203085935275736,0.00040346506905070974,-0.0036703028155428774
5.891666666666667,1.25732672214508,-0.93180084228516,8.77611637115479,0.00890998409507766,-0.003186144550630083,0.010719653030354217
5.9,-1.22144103050232,0.4522171318531,9.6026782989502,0.00433685822672757,-0.0018937154644693471,0.0010317976167344349
5.908333333333333,0.34705573320389,0.38251966238022,8.99334716796875,0.010968438049248765,0.0018311279279234623,-0.0024447077595100624
5.916666666666667,-0.49165067076683,-0.22018596529961,9.2505931854248,0.01829809091020305,0.01993519845011274,-0.010052428187856503
5.925,-0.2162047624588,-0.04103957489133,9.72474098205566,0.011173860355753601,0.025157222503486402,-0.015512283969844644
5.933333333333334,-0.19087788462639,0.8634871840477,10.05601692199707,0.02042807674707547,0.03712504816219297,-0.009944241429761266
5.941666666666666,0.57957494258881,-0.20432481169701,10.16932964324951,0.023972979265160843,0.026523861067563385,-0.0057558037193123565
5.95,0.00868355110288,-0.21735343337059,10.52471446990967,0.016077580482808652,0.01425271072337259,-0.009031358702055164
5.958333333333333,0.81519544124603,0.01146621257067,10.20026206970215,0.003415706175777304,0.0034487881500917853,-0.006632027410434963
5.966666666666667,-0.31049776077271,0.47257402539253,10.53970718383789,0.0037366901680172693,-0.020371297320397157,-0.0059091425011546395
5.975,0.41748297214508,0.01715234294534,10.21575546264648,0.0071418901212793075,-0.009797606323725373,-0.004087850064061899
5.983333333333333,-0.18558050692081,0.19397795200348,10.08618831634521,-0.0005123224287935141,-0.024805167171540285,-0.0016232484391940972
5.991666666666666,-0.48106417059898,0.69787406921387,9.84144687652588,0.0049392618843371,-0.004744570244490172,-0.0030135823750403004
6.0,0.59407937526703,0.07380302995443,9.57123374938965,0.005702157147955419,-0.019782305955812533,-0.00038066539325745647
6.008333333333334,0.22355495393276,-0.10502519458532,9.70116519927979,0.0008002245117375741,-0.019444338329913862,-0.0015993312240254456
6.016666666666667,0.35465225577354,0.22591538727283,9.27514171600342,-0.003537081302903589,-0.02456018131838813,0.0007602131171023627
6.025,-0.5820769071579,0.64547252655029,9.52816581726074,0.003592739549166071,-0.015041537997956756,0.0018474455112352758
6.033333333333333,-0.21560814976692,0.22095131874084,9.45442771911621,0.016035332969125248,0.021729444977904844,0.006098694032038344
6.041666666666667,0.67405533790588,-0.13663360476494,9.32501792907715,0.010253824543807213,0.009716467295451075,0.0024120728529605654
6.05,0.10240725427866,0.17001593112946,9.58656215667725,0.007528592034680469,-0.00041352380118015754,0.006303666930109284
6.058333333333334,-0.03638651221991,0.11749260127544,9.55207061767578,0.009830912482108019,-0.004691818328811987,0.0031747447127334566
6.066666666666666,-0.74377417564392,0.25138658285141,9.83686828613281,0.009900651932559998,0.008816550833302461,-0.001140878445341243
6.075,0.26491269469261,0.08212894201279,9.64691066741943,0.01115106015981174,0.01471094087843428,-0.0014779563569732898
6.083333333333333,-0.30816572904587,0.28178650140762,9.85904407501221,0.015313566379443411,0.014535247147894816,-0.005727192422648078
6.091666666666667,0.34111192822456,-0.16493025422096,9.70024967193604,0.015363414305206387,0.01903013979840612,-0.00782453945185608
6.1,0.64184606075287,-0.27669343352318,9.9791955947876,0.007211854275948061,-0.0012323008124339881,-0.009012806039992554
6.108333333333333,0.0209431592375,0.12420194596052,10.09794044494629,0.005492490428463155,0.00023738498594219238,-0.00721408987484764
6.116666666666666,0.32330852746964,0.01299648359418,9.96411037445068,2.23526364731206e-06,-0.02062030704350865,-0.009855277285190442
6.125,-0.51529794931412,0.17164677381516,10.00983142852783,0.005222470340915738,-0.002664881481740503,-0.007592297240638903
6.133333333333334,0.2020105868578,0.08876678347588,9.59229850769043,0.0033499895549876295,-0.01156122961987335,-0.010088191528463856
6.141666666666667,-0.40190425515175,0.46612936258316,9.65542316436768,0.008367262033541175,-0.0025745766540231562,-0.008180617613464504
6.15,0.52945345640182,0.05687225610018,9.58406543731689,0.007516968272789806,-0.007012468814679808,0.0003592068882499581
6.158333333333333,-0.09690692275763,0.23369081318378,9.97015380859375,0.006756978559532871,-0.009415824496408312,-0.006726355848037526
6.166666666666667,0.51182150840759,0.12127643078566,9.60449981689453,0.0062578439146032195,0.00033171313096107583,-0.0018686805798881455
6.175,-0.0060010952875,0.24269565939903,9.82589721679688,0.004819898692190663,-0.01053077353152675,-0.006229232097790329
6.183333333333334,0.50577038526535,0.11913059651852,9.65052318572998,0.004925850371535105,-0.0040020161740690575,-0.005121436146912177
6.191666666666666,0.4847409427166,0.13722024857998,9.54333591461182,0.00020452662678346697,-0.02522987062519142,-0.003629174141606747
6.2,-0.71047759056091,0.40527293086052,9.56999588012695,0.0052007879444235785,-0.014073665154929844,-0.002985418146141005
6.208333333333333,-0.43688136339188,0.28430408239365,9.36528968811035,0.009190956952756719,-0.00018329160689457277,0.0005346750368217821
6.216666666666667,-0.59721231460571,0.3132159113884,9.68240261077881,0.013499204663042922,0.012449077593035228,0.0029724537011039946
6.225,0.84102410078049,-0.12498162686825,9.45206737518311,0.012944188368005535,0.02116191078544682,0.0004150884408299163
6.233333333333333,0.00744610931724,0.21459244191647,9.86966419219971,0.010362012342199845,0.004634819399403158,0.0006265444066609363
6.241666666666666,0.23748849332333,0.0478309057653,9.80182075500488,0.011635664972341088,0.008992689811086777,0.0036772322358636076
6.25,0.06390349566936,0.15515947341919,10.07429981231689,0.007779387948257647,-0.0036175503797160843,-0.0001345628540988714
6.258333333333334,-0.04651493951678,0.06531976163387,10.05641841888428,0.01196290713306828,0.012769836620983941,0.00560268808124085
6.266666666666667,0.13424456119537,0.06412523984909,9.90828990936279,0.007857621946319171,-0.005715122373215341,0.0016127427368274408
6.275,-0.45587933063507,0.2631531059742,10.08553028106689,0.007655330414541101,0.0026635400183710684,0.0003777595178033667
6.283333333333333,0.66130185127258,-0.07255130261183,9.64567184448242,0.005763850939082789,-0.001114502487502063,0.0008069301381014195
6.291666666666667,-0.53308707475662,0.34930908679962,9.98416709899902,0.0051491533080463125,-0.015621363303023852,-0.003993968954298625
6.3,0.10471046715975,0.02762427926064,9.65024375915527,0.007952620335383364,0.0037346779729631172,-0.00849824794728106
6.308333333333334,-0.2596127986908,0.12926614284515,9.83656883239746,0.009028899439236201,0.0008715292195156953,-0.00876625557970002
6.316666666666666,0.87899905443192,-0.25208035111427,9.4577751159668,0.00850942542162965,0.004924062620623598,-0.010108756125506314
6.325,0.26919728517532,0.08654195815325,9.57781410217285,0.0013883222609408345,-0.01988803345108863,-0.013358830066163173
6.333333333333333,-0.03087167069316,0.18525862693787,9.57661914825439,0.004147754543831762,-0.005723168552688556,-0.009075170822878946
6.341666666666667,0.05451904609799,0.2570728957653,9.5553617477417,0.003951722220838313,-0.014341451204023683,-0.008088077446922231
6.35,-0.66803973913193,0.32237863540649,9.61483764648438,0.010474669257796675,0.0071338439418062675,-0.0022518049108718585
6.358333333333333,0.19694638252258,0.16443671286106,9.32096290588379,0.009943346774082512,0.007230630601930576,-0.005801849878589544
6.366666666666666,-0.33288615942001,0.2909991145134,9.69621467590332,0.012225103664765,0.011935861483841776,-0.006975363490554414
6.375,0.69381839036942,-0.05760919302702,9.62103843688965,0.008758657248214877,0.009032700685573382,-0.005561559407304719
6.383333333333334,-0.39864939451218,0.36841434240341,10.01331520080566,0.008097913457901389,0.0034722582974954512,-0.0016228013714289372
6.391666666666667,0.34720614552498,0.12002470344305,9.93498420715332,0.01148232515020124,0.015415942036816404,-0.0011462432585215893
6.4,0.4724238216877,0.0128536587581,10.1968994140625,0.009326189360078464,-0.0005328868307802428,-0.0018288927191355139
6.408333333333333,0.58651149272919,-0.11938803642988,10.05495738983154,0.0037755840232770823,-0.004259071816579464,-0.0006683438773003606
6.416666666666667,-0.25010630488396,0.44644469022751,10.07550144195557,-0.0021758056014494994,-0.025592874045931354,-0.0005802744534268648
6.425,-0.57493835687637,0.37299931049347,10.06050205230713,0.007757035080155075,0.0010762795589826953,0.0017951404032477713
6.433333333333334,0.67644435167313,-0.07853821665049,9.67396259307861,0.002492095382156684,-0.016707702081775404,0.0007208725191704445
6.441666666666666,-0.75340896844864,0.42075884342194,9.70358276367188,0.0030321350371029098,-0.013595320851556819,-0.0016594596277893453
6.45,0.35684829950333,0.11840806156397,9.20869064331055,0.006929765179265299,-0.003959993364602781,0.0010255389931169987
6.458333333333333,-0.13985238969326,0.08277270197868,9.66079425811768,0.008209228389980176,-0.005829120232032999,-0.00359296269293702
6.466666666666667,0.69888281822205,-0.28004094958305,9.48344707489014,0.005688075163542836,-0.001111373013146992,-0.003172286230137232
6.475,-0.14413693547249,0.30159962177277,9.65203952789307,0.0008885172744379214,-0.012737426158577087,-0.006195256508094312
6.483333333333333,-0.71385371685028,0.60876417160034,9.58088302612305,0.014061371961726164,0.021102900961355538,-0.004103943723379675
6.491666666666666,0.25413104891777,0.1923959851265,9.27156352996826,0.01626579107047153,0.026108551498538555,-0.002768597562185541
6.5,0.28566309809685,0.01554312743247,9.47222423553467,0.012603087366636706,0.013696131901789256,-0.0025106485643680765
6.508333333333334,-0.0010085508693,0.08297298103571,9.58089733123779,0.008085171896561022,0.0034452118680458593,-0.004543396512161804
6.516666666666667,-0.78863668441772,0.33721363544464,9.97272300720215,0.01368361400436862,0.022170909701666647,-0.003703831857622345
6.525,0.54240721464157,-0.01278928294778,10.01492404937744,0.01323879640240632,0.02493593254225226,-0.0030091122175387075
6.533333333333333,0.33121955394745,0.13379392027855,10.20271492004395,0.011023426083975137,0.01888172058249933,-0.001995196596200741
6.541666666666667,0.89485639333725,-0.10209252685308,9.96627807617188,0.007243596347339109,0.00319553323376995,-0.0010959498254394537
6.55,-0.04414734616876,0.1000754237175,10.16002655029297,0.004646218977225481,-0.01671753705245734,-0.005087906844758405
6.558333333333334,0.14724127948284,-0.02114380337298,9.91429138183594,-0.0005829567299797984,-0.011934072172484444,-0.001741270298008253
6.566666666666666,-0.68199497461319,0.37446564435959,10.04470157623291,0.002553788653135446,-0.013441087414035782,-0.00709249108380162
6.575,0.02009219303727,0.12960228323936,9.82218360900879,0.007173855336441305,0.004220177441171043,-0.0022719219200005468
6.583333333333333,0.13910134136677,0.16059562563896,9.90565013885498,0.005720709289869419,-0.007081761457441104,-0.005716015468448094
6.591666666666667,0.62299829721451,-0.03906167671084,9.78310775756836,0.0015734020738769464,-0.014075455506584395,-0.0030623114610561822
6.6,0.21479064226151,0.17288611829281,9.58695888519287,-0.0033224957976989216,-0.03518349553660594,0.0016659419803450898
6.608333333333333,-0.40437883138657,0.25025650858879,9.58958721160889,0.0011764192923634053,-0.01616900389019861,0.0008357650986852574
6.616666666666666,0.27240887284279,0.14282797276974,9.40291976928711,0.001123890520456169,-0.012343350097759127,0.0014985208239785945
6.625,-0.24030691385269,0.32711380720139,9.57460975646973,0.004808052306677658,-0.0030435353951481447,0.0014685681939822063
6.633333333333334,0.61743342876434,-0.01258185040206,9.31903171539307,0.003619338910850504,-0.008705458524846013,0.0019531732665858566
6.641666666666667,-0.44135186076164,0.29301622509956,9.65731048583984,0.003126016667014792,-0.014581074324590099,-0.0021100889806598255
6.65,-0.42790451645851,0.24414798617363,9.5353832244873,0.0077617294217250075,0.008246334234254178,0.0011542902182175424
6.658333333333333,-0.50997638702393,0.27990487217903,9.68625736236572,0.01114032949315383,0.009441082914872093,-0.0028468318203213696
6.666666666666667,0.26219418644905,-0.12045916169882,9.70292186737061,0.01572753916643681,0.02536107708195903,-0.001815481076296192
6.675,0.55604726076126,-0.01532869320363,9.95285987854004,0.0050590718841743935,0.001686953385078228,-0.0051965409306929345
6.683333333333334,0.20322658121586,0.12084728479385,10.03966617584229,0.0073073005130003255,0.003896288418718651,-0.004555467601891757
6.691666666666666,0.23487074673176,0.21160255372524,10.06711101531982,0.0051393178172157656,-0.008779668132799408,-0.0038884640826448626
6.7,-0.36146891117096,0.18862761557102,10.22224235534668,0.012210573832364516,0.0043791049601878814,-0.001987596314158142
6.708333333333333,0.65449225902557,-0.03173001110554,9.88708877563477,0.005718474731267233,-0.0002700198112185124,-0.0017931284682679237
6.716666666666667,-0.33260008692741,0.2836819589138,9.96512508392334,0.004811404664729549,-0.011139211173555518,-0.004217048226890276
6.725,0.37259873747826,0.08887407183647,9.40367126464844,0.0027826795465979493,-0.013754918061960981,-0.001182901514881823
6.733333333333333,-0.7766056060791,0.41042309999466,9.66268157958984,0.0046446538499363135,-0.015291438215557786,-0.0032648258765310715
6.741666666666666,0.02495626918972,0.0170309189707,9.47520637512207,0.011195541191799937,0.018410524161880326,-0.0015684844584989122
6.75,0.05475501343608,0.09968917071819,9.79662704467773,0.007923114903189112,0.0031007577284024018,-0.002561612208986146
6.758333333333334,0.62266957759857,-0.23450574278831,9.73254489898682,0.010389951606807711,0.013050362150823709,-0.004526855785078869
6.766666666666667,0.88409841060638,-0.20974972844124,9.63721752166748,0.00023425562536967306,-0.016732735796022236,-0.006376312971219687
6.775,-0.37920075654984,0.27085638046265,9.67114448547363,0.002448284041555988,-0.010579055809852127,-0.006969999197522851
6.783333333333333,-0.37265595793724,0.46492049098015,9.41198253631592,0.0022401814090554995,-0.010803252361744696,-0.0028689610245043852
6.791666666666667,-0.85438561439514,0.39309164881706,9.58755588531494,0.014769280751063932,0.0148618203974576,-0.0015119322067436122
6.8,0.43653070926666,-0.03397611156106,9.43627262115479,0.01325712331995459,0.016822815139299546,-0.0035375281105942697
6.808333333333334,-0.15820667147636,0.2047356814146,9.78692626953125,0.009526023189483398,0.010924851672939323,-0.0026300112363659067
6.816666666666666,0.62368512153625,-0.05187947675586,9.67440700531006,0.008940829950343954,0.00838961438149514,-0.0030672286863229347
6.825,-0.21009330451488,0.20669570565224,10.08444976806641,0.008572906443519743,0.002567647233702427,-0.0052680686522048525
6.833333333333333,0.51667845249176,0.03527066856623,9.8151741027832,0.00838693353535088,0.009969053560682974,-0.002739986525595565
6.841666666666667,-0.05853171274066,0.2163377404213,9.96887397766113,0.007339711495555786,-0.0012651593829030422,-0.005805874268697673
6.85,0.12984555959702,0.1212764531374,9.97850894927979,0.008767597563218063,0.007411686544907168,-0.005098859614889873
6.858333333333333,0.49361059069633,0.11544673889875,9.96115779876709,0.0010423033841196671,-0.015744749844981375,-0.004085614985311102
6.866666666666666,-0.39518728852272,0.39827728271484,10.00493240356445,0.004359881046291772,-0.006748260868152027,-0.00273775092669616
6.875,-0.07472574710846,0.34528920054436,9.86047267913818,0.004880698347787888,-0.010657290328062433,-0.0014784034247384498
6.883333333333334,-0.08081998676062,0.25169426202774,9.94689464569092,0.007997996023050314,0.002324450431833479,0.00015088031550083256
6.891666666666667,0.99568301439285,-0.09995398670435,9.58265781402588,0.0010789619005543798,-0.00810596067767182,-0.0023385331964689746
6.9,-0.3326501250267,0.35112589597702,9.75968933105469,0.0009611633155481504,-0.017038520784623003,-0.005218893278646899
6.908333333333333,0.46776732802391,-0.02860421873629,9.43426322937012,0.0035153996866343425,-0.006355302606783766,0.0010324685434748805
6.916666666666667,-0.25559258460999,0.22052927315235,9.75960445404053,0.002613694173202702,-0.013135304506029621,-0.0005060637401575017
6.925,-0.25830346345901,0.31028318405151,9.51028442382812,0.009380508483640426,0.0110243196993565,0.0035169637736261177
6.933333333333334,-0.19437135756016,0.4553285241127,9.42207527160645,0.009485118699615434,0.00661191014123197,0.0005006990895236829
6.941666666666666,-0.10343725979328,0.05485515296459,9.56101226806641,0.014148994122778943,0.019584260397467714,0.002378096743116113
6.95,0.44744563102722,-0.11179898679256,9.6213550567627,0.006111881360772173,0.0005120988949109341,0.004105955918433827
6.958333333333333,-0.35531032085419,0.18993659317493,9.82844257354736,0.006384136527070387,0.008269358614264382,0.0011804427722114691
6.966666666666667,-0.24941247701645,0.35972362756729,9.93097114562988,0.010410293580227827,0.007706071435536831,0.004299082430991763
6.975,0.29032674431801,-0.06741554290056,10.06048774719238,0.016523739027991778,0.02356973714482553,0.0020168782124699875
6.983333333333333,1.21963119506836,-0.44698116183281,9.96214389801025,0.004499361767715681,-0.00025482004361100213,0.000903270055553623
6.991666666666666,-0.08010468631983,0.14748446643353,10.1570873260498,-0.0034729292892544733,-0.025467926017725448,-0.005452926361667407
7.0,-0.04793121293187,0.31749296188354,9.72086524963379,-0.00033551307692673436,-0.015267521780612223,-0.00400134544238434
7.008333333333334,-0.71763026714325,0.36858552694321,9.7327880859375,0.004094556600685809,-0.01074602976841631,-0.010800572555897829
7.016666666666667,-0.05058490484953,0.10693500190973,9.48240184783936,0.006639179974526642,0.007413028528425212,-0.0007148372993984359
7.025,0.07712873071432,0.31983932852745,9.62427234649658,0.004411069135052486,0.0003411012614429585,-0.004926074035454837
7.033333333333333,0.5408478975296,0.07946093380451,9.68256759643555,0.005279916078015247,0.0022354870674855666,-0.0059037787282716836
7.041666666666667,0.26697981357574,0.10466772317886,9.82656002044678,0.0029941355774475457,-0.016692501257616073,-0.0046015137611689445
7.05,-0.15010239183903,0.17819879949093,9.65880680084229,0.005228505625706323,0.001180442642174317,-0.00011757488044982174
7.058333333333334,0.12388724088669,0.2997470498085,9.5902738571167,0.0032207913921592527,-0.0007617777892613221,-0.004171448875303769
7.066666666666666,-0.20955681800842,0.18693952262402,9.7762393951416,0.011894955953676593,0.0165626336634745,-0.0004747699718845592
7.075,0.94300937652588,-0.13719153404236,9.47964096069336,0.0010682324692494155,-0.011798168773403677,0.0014710268066155823
7.083333333333333,-0.91856092214584,0.46703058481216,9.83693981170654,0.0036584561699555705,-0.01275173232705784,-0.003206262339981859
7.091666666666667,-0.35382968187332,0.35518872737885,9.63154602050781,0.01070624255784944,0.015025217813901549,6.281090381828713e-05
7.1,-0.21499300003052,0.17791981995106,10.01358699798584,0.015436956042292763,0.020156937819780958,0.0038341480799749033
7.108333333333333,0.91467696428299,-0.35501706600189,9.90448474884033,0.010603865860179227,0.019181018277132224,0.0030848872128555736
7.116666666666666,0.17721883952618,0.11194199323654,10.08954238891602,0.0021393706188973668,-0.008737197995493842,-0.0035205403157463487
7.125,0.23199507594109,0.07619211822748,9.93899822235107,0.005017943210238089,-0.0004367705122291953,0.0013355700851881707
7.133333333333334,0.25787425041199,0.09270060807467,9.98548221588135,-8.494002063256313e-06,-0.018347045220584668,0.005687181548161475
7.141666666666667,-0.30424618721008,0.19679616391659,9.99861621856689,0.006326689749673661,-0.0022433103632619623,0.0027873738881678827
7.15,0.19109535217285,0.10844425112009,9.7429084777832,0.0024290606478084872,-0.012267572761773347,-0.002010395989951395
7.158333333333333,-0.5294246673584,0.22831153869629,9.92902755737305,0.0059348487676064935,-0.002411849709189617,-0.0016719772651356745
7.166666666666667,0.70960539579391,-0.18564502894878,9.38589572906494,0.0026203994094550907,-0.0008806939136429496,-0.004136132082312795
7.175,-0.65379852056503,0.44499224424362,9.68378353118896,0.0005375808797664965,-0.01467048163581117,-0.01263370955798344
7.183333333333334,-0.00384107674472,0.20665994286537,9.37535285949707,0.007834152319064288,0.013036953758913542,-0.0052479529434476865
7.191666666666666,-0.24652273952961,0.1664967238903,9.69740200042725,0.011444101506477532,0.009469470547616642,-0.010421692117752759
7.2,0.66482096910477,-0.27258768677711,9.59184074401855,0.011743850690138934,0.020609352712931184,-0.007561449304778001
7.208333333333333,0.42339089512825,0.01385563518852,9.66990661621094,0.0020164312747421543,-0.009709091587588446,-0.013592637924817947
7.216666666666667,-0.32963162660599,0.24444125592709,9.73001956939697,0.0056943335921045436,0.002325344307289145,-0.015069699886186963
7.225,-0.07041973620653,0.24487042427063,9.66353416442871,0.005536077845069815,0.0046813128865196355,-0.008271816316637518
7.233333333333333,-0.5526716709137,0.27103525400162,9.87705898284912,0.010530103580065122,0.014694846438893412,-0.0069445165949909024
7.241666666666666,0.30855217576027,0.16565269231796,9.68729591369629,0.010328482519897288,0.011503338115380377,2.4811427908322793e-05
7.25,-0.05778066441417,0.19647428393364,10.02792835235596,0.010750947253757191,0.008846055745348103,7.75636483611378e-05
7.258333333333334,0.93667191267014,-0.14699092507362,9.9292049407959,0.007414593135565595,0.003065664079182377,-0.0008440355272453891
7.266666666666667,-0.02771726623178,0.20356990396976,10.22728538513184,0.001291311806859642,-0.01598749905893673,-0.0016840475746427142
7.275,0.12927332520485,0.180316016078,9.98890972137451,0.00367790270747402,0.0013138879487703155,-0.0010313504839508736
7.283333333333333,0.37942254543304,0.17822024226189,9.91540718078613,0.001905562240093807,-0.01249333496110369,-0.005459407934000064
7.291666666666667,0.38033092021942,0.02638685703278,9.65514183044434,0.0022117935162366473,-0.012075789793179454,-0.00040681801226978467
7.3,0.06379693001509,0.19893220067024,9.44706726074219,-0.004776311275583828,-0.030425960066855846,-0.0014059806574363213
7.308333333333334,-1.04220497608185,0.46306788921356,9.67336845397949,0.005345185891114066,-0.009887912451814241,0.00011019849801935842
7.316666666666666,0.14730595052242,0.124731361866,9.52436256408691,0.005021519752358319,0.0010735972174111855,-0.0017180236844871663
7.325,-0.28593498468399,0.27625706791878,9.85270404815674,0.008243652347812703,0.010040356577977944,-0.0014124630099918915
7.333333333333333,0.76871579885483,0.00248902360909,9.47521495819092,0.008392521492302175,0.004834428524591143,0.003272873356375808
7.341666666666667,-0.16031667590141,0.25993430614471,9.68381881713867,0.0055669237003362826,-0.007790340718389113,0.002135347399123607
7.35,0.322829246521,-0.02151575125754,9.51191520690918,0.008158489449579058,0.0017240588392407733,0.009153627964711595
7.358333333333333,-0.07898169010878,0.21329061686993,9.63286972045898,0.004957144074789471,-0.004802686453200095,0.005394361264672195
7.366666666666666,-0.8076918721199,0.43258965015411,9.76871585845947,0.01213904715114999,0.01985607135681846,0.0030410763924034866
7.375,0.05888883769512,0.09890145808458,9.63528823852539,0.015091383843125122,0.026510451635356,0.0027044455485362505
7.383333333333334,0.237129971385,-0.05829118192196,9.87497806549072,0.012364585686560603,0.028339123681426454,-0.00217915860968715
7.391666666666667,0.5949165225029,-0.14123983681202,9.83505153656006,0.004337305294492555,0.003292096229974526,-0.0037874304087900856
7.4,-0.57062518596649,0.3483005464077,10.00093364715576,0.005570053434765833,-0.0036202330463804746,-0.009042534615957928
7.408333333333333,-0.13020320236683,0.11681307852268,9.87801170349121,0.012379784430125497,0.014528320848465911,-0.0035191993725256967
7.416666666666667,0.20630970597267,-0.03524897992611,10.09960651397705,0.011069025435561644,0.010282212176551762,-0.009820630183586792
7.425,0.72283053398132,-0.17418603599072,9.96121406555176,0.0067478135403127365,0.004624313436962198,-0.006616826586275461
7.433333333333334,0.48741617798805,-0.01171635650098,9.96937465667725,-0.0007957538340873728,-0.018554476341177354,-0.006251138158202047
7.441666666666666,0.03286015987396,0.13387261331081,10.00965309143066,0.0021067362324964788,-0.01438079420764309,-0.002645658087993002
7.45,0.2273173481226,0.14576064050198,9.73941135406494,-0.004429844940886219,-0.026398463630923578,-0.0071309383914450585
7.458333333333333,-0.80165487527847,0.45870468020439,9.6787052154541,0.0025175774645400228,-0.006021800457048862,-0.0045729029846534475
7.466666666666667,0.03691582381725,0.2907272875309,9.32810878753662,0.004026380457002868,-0.00334216599913693,-0.008014314126510736
7.475,-0.1094953790307,0.29059827327728,9.50369644165039,0.004427386718364474,-0.0039756396960812694,-0.00914133477150791
7.483333333333333,0.52029782533646,0.06947556138039,9.46464920043945,0.002746021290237541,-0.003995310157593755,-0.0012030187840849902
7.491666666666666,-0.27378937602043,0.4209018945694,9.7115364074707,0.0010937144866143532,-0.006740214168530203,-0.004285894322035021
7.5,0.07845237851143,0.26923301815987,9.65758991241455,0.008560612730167451,0.013649413190307219,0.005767873768744918
7.508333333333334,0.4555144906044,0.04378970339894,9.75498294830322,0.006892881958613638,0.003898970305160128,0.0056554405170678185
7.516666666666667,0.28421780467033,0.01302535831928,9.8263463973999,0.005141106088275881,-0.0003451246762724463,0.009462764791215642
7.525,0.15931525826454,0.12174109369516,9.77279376983643,0.00033193666484365573,-0.015090713891663493,0.008779444468879849
7.533333333333333,-0.65311175584793,0.30983969569206,10.02474498748779,0.0029223836718672873,-0.007085785327400624,0.006910094197604204
7.541666666666667,-0.1253821849823,0.07204343378544,9.98397350311279,0.007470251121753597,0.0019312677263225739,0.0030529230379907945
7.55,-0.30190718173981,-0.0018096693093,10.18476104736328,0.0094629884551352,0.012089422889306572,-0.0002865608146303537
7.558333333333334,0.8544499874115,-0.34175568819046,9.81302833557129,0.0020933244596201793,-0.0033184721878137054,-0.0049140029457248845
7.566666666666666,0.07415350526571,-0.00601577758789,9.7487678527832,-0.0027972088588496466,-0.0240925635204838,-0.008779668132799408
7.575,-0.03270995244384,0.03233046457171,9.54724407196045,0.00014998617997086212,-0.012253716001726497,-0.007253430797872437
7.583333333333333,-0.08149949461222,0.16315634548664,9.53931713104248,-0.0015552966096164748,-0.014058021164120096,-0.007731777701988685
7.591666666666667,-0.42041549086571,0.30948206782341,9.65049457550049,0.006086399798537444,0.007470026937685257,-0.0015843548440085881
7.6,0.22580094635487,0.11254283040762,9.55265712738037,0.007556307635368779,0.008441472681791962,-0.003798159254927691
7.608333333333333,-0.0137835284695,0.13307864964008,9.8691349029541,0.007611744038231659,0.013651426165584284,-0.007400511151153186
7.616666666666666,0.5174149274826,0.03668658435345,9.64862632751465,0.005090365067280151,0.00988500586115564,-0.008155582338771847
7.625,-0.27368929982185,0.42944288253784,9.8193998336792,0.0025582588106370387,-0.01082582785346961,-0.010630018934321589
7.633333333333334,-0.36577501893044,0.40787628293037,9.64730262756348,0.008977042699385204,0.014124407736371575,-0.008195371629933328
7.641666666666667,0.03775270655751,0.28956854343414,9.63118171691895,0.009563128513608792,0.009975758276786754,-0.0002494554579957594
