Time (s),Acceleration x (m/s^2),Acceleration y (m/s^2),Acceleration z (m/s^2),Gyroscope x (rad/s),Gyroscope y (rad/s),Gyroscope z (rad/s)
0,-1.671914697,-0.404700994,9.510036469,0.074148172,-0.021292004,-0.104164861
0.008333333,-1.55710876,-0.270016223,9.547481537,0.06856359,-0.046999325,-0.098524843
0.016666667,-1.349699616,-0.132111236,9.478651047,0.063729162,-0.067638412,-0.085345275
0.025,-1.140625238,-0.120672606,9.402575493,0.054936523,-0.073173821,-0.06736347
0.033333333,-0.960776508,-0.136068046,9.305189133,0.045978032,-0.063811633,-0.050170713
0.041666667,-0.867991447,-0.178387418,9.177098274,0.037900677,-0.043485039,-0.033562702
0.05,-0.882729411,-0.231648028,9.118102074,0.032726496,-0.019159116,-0.020574486
0.058333333,-0.990282774,-0.263499886,9.059327126,0.026261669,0.013504571,-0.014657742
0.066666667,-1.161397696,-0.309758306,9.008717537,0.021115191,0.045324438,-0.014286687
0.075,-1.293878198,-0.345660657,8.996179581,0.007897633,0.067335078,-0.021118994
0.083333333,-1.369215012,-0.365663797,8.883351326,0.002195029,0.080451616,-0.02818645
0.091666667,-1.33716619,-0.398599207,8.830285072,-0.003328084,0.089301917,-0.031892072
0.1,-1.251928329,-0.378468841,8.657144547,-0.00727869,0.097555852,-0.036170813
0.108333333,-1.125326157,-0.350569367,8.458436966,-0.01021359,0.105199565,-0.031861227
0.116666667,-1.019305587,-0.349467725,8.276786804,-0.016145533,0.119538324,-0.028195837
0.125,-0.952073514,-0.372846723,8.087272644,-0.02263182,0.141602156,-0.020085854
0.133333333,-0.902723074,-0.395280004,7.875314713,-0.023364093,0.167797208,-0.012311161
0.141666667,-0.833240628,-0.475231379,7.641898632,-0.020388516,0.205111857,-0.001699471
0.15,-0.770181298,-0.522063017,7.356782436,-0.015951516,0.245476724,0.006871649
0.158333333,-0.728566825,-0.515345156,7.142573833,-0.008603308,0.292261224,0.017135982
0.166666667,-0.726948142,-0.42692399,6.940453053,0.000836883,0.342353985,0.02536533
0.175,-0.806292117,-0.364725351,6.701430798,0.004803584,0.395802363,0.03207247
0.183333333,-0.915232897,-0.312446058,6.481948376,0.003206711,0.441291851,0.037037447
0.191666667,-1.090942025,-0.309201002,6.297996998,-0.007733793,0.480350837,0.040695677
0.2,-1.364037752,-0.448604941,6.05342865,-0.018751864,0.501792014,0.043247918
0.208333333,-1.697571278,-0.634830832,5.927840233,-0.019758629,0.508626584,0.041700663
0.216666667,-2.064098597,-0.714426398,5.783781052,-0.01666368,0.501944014,0.038506471
0.225,-2.364414692,-0.703954935,5.781646252,-0.014266578,0.472559593,0.032762726
0.233333333,-2.637933493,-0.663217723,5.769654751,-0.011449251,0.427938795,0.027178587
0.241666667,-2.870779276,-0.60100913,5.748036861,-0.00978353,0.36744306,0.018558059
0.25,-3.004652739,-0.496311098,5.806359291,-0.007284055,0.29409188,0.004557256
0.258333333,-2.958843946,-0.406794131,5.798849106,-0.004000899,0.227836893,-0.007788331
0.266666667,-2.728764534,-0.422605038,5.714370251,0.004557256,0.172076858,-0.022516929
0.275,-2.400767803,-0.403903544,5.524155617,0.018279091,0.138781702,-0.031062788
0.283333333,-2.120574951,-0.392529011,5.287279129,0.035220609,0.124597639,-0.037483364
0.291666667,-2.014050484,-0.324542195,5.215615749,0.049979611,0.120849548,-0.042117963
0.3,-2.125098228,-0.386954725,5.219930172,0.057434652,0.106151778,-0.04405414
0.308333333,-2.392065763,-0.547264457,5.291877747,0.063335746,0.079584774,-0.053348368
0.316666667,-2.624678612,-0.649161875,5.404887199,0.062608841,0.042294768,-0.063700325
0.325,-2.782916069,-0.632351398,5.548539639,0.058947032,-0.011718816,-0.07682623
0.333333333,-2.902573347,-0.557876706,5.672642708,0.046432684,-0.072533639,-0.080375833
0.341666667,-2.879716635,-0.496518373,5.781629086,0.04335025,-0.144694203,-0.080102684
0.35,-2.782348871,-0.351672798,5.876529217,0.036040505,-0.22343587,-0.076270562
0.358333333,-2.559218645,-0.131175026,5.96284771,0.027434735,-0.299115634,-0.070430258
0.366666667,-2.206192732,0.136722699,5.94299984,0.012331059,-0.353145181,-0.063851002
0.375,-1.826791048,0.237817436,5.785703659,-0.002694165,-0.382289051,-0.05910018
0.383333333,-1.526305676,0.184266716,5.667758465,-0.011042431,-0.389996672,-0.055656975
0.391666667,-1.340339541,-0.013571355,5.658556461,-0.016599746,-0.390889464,-0.058394721
0.4,-1.259009719,-0.218063995,5.706972122,-0.015626509,-0.383681119,-0.060268763
0.408333333,-1.249393344,-0.479303062,5.720121861,-0.004499812,-0.37553361,-0.063459388
0.416666667,-1.277361751,-0.684013188,5.772515297,0.016587449,-0.370917786,-0.06811677
0.425,-1.318116188,-0.730196178,5.778959751,0.042200904,-0.368473337,-0.074445264
0.433333333,-1.372527719,-0.544492483,5.864709854,0.064349242,-0.372873678,-0.072721875
0.441666667,-1.423044562,-0.373540252,5.934454441,0.079671527,-0.386080494,-0.065859154
0.45,-1.4543823,-0.128129542,6.067537308,0.091678497,-0.407966851,-0.06011231
0.458333333,-1.430119395,0.113440335,6.142925262,0.100361151,-0.426402051,-0.049022716
0.466666667,-1.392421007,0.223210931,6.118872166,0.096345287,-0.442306383,-0.041082156
0.475,-1.250928998,0.201627761,6.106347084,0.095512425,-0.4592341,-0.033572566
0.483333333,-1.081405401,0.066175729,6.082365513,0.09942728,-0.475424156,-0.025258273
0.491666667,-0.970542789,-0.060305692,6.056386471,0.111389084,-0.489242599,-0.014834339
0.5,-0.883293808,-0.127456814,6.14073801,0.127140118,-0.514125179,-0.005034042
0.508333333,-0.840892076,-0.111247852,6.298449039,0.141131093,-0.550728997,0.006450976
0.516666667,-0.767901838,0.05875523,6.386271954,0.149827629,-0.597611085,0.014532357
0.525,-0.617305338,0.311906487,6.533423424,0.148765011,-0.63857969,0.029176486
0.533333333,-0.406656504,0.496774226,6.512123585,0.127164319,-0.668687858,0.045641018
0.541666667,-0.150511235,0.564704776,6.511306763,0.097370904,-0.688524547,0.058183104
0.55,0.067101292,0.48826015,6.43819952,0.061717955,-0.690379372,0.066579656
0.558333333,0.114955127,0.297681332,6.41945982,0.040566959,-0.693140737,0.074767881
0.566666667,0.114447013,0.259188592,6.467049122,0.032208853,-0.69677715,0.077833779
0.575,0.046784788,0.342658579,6.520748138,0.033681002,-0.709286617,0.079052891
0.583333333,-0.030677877,0.454540312,6.75938797,0.050207677,-0.7467525,0.07835952
0.591666667,-0.053197406,0.535943091,7.036066055,0.065796898,-0.80856367,0.072963615
0.6,0.083120048,0.591784596,7.131488323,0.083757315,-0.883479057,0.066256493
0.608333333,0.336066931,0.608254194,7.175900936,0.095695467,-0.950235651,0.062946975
0.616666667,0.674128473,0.516006768,7.183121681,0.096552056,-1.004958019,0.060586108
0.625,1.080055833,0.355568945,7.188007355,0.092863437,-1.039241557,0.061057316
0.633333333,1.429515123,0.158841997,7.221295357,0.104352281,-1.053162499,0.070910392
0.641666667,1.686457396,0.011424607,7.224431038,0.120124361,-1.051541566,0.088255211
0.65,1.933678746,0.080868065,7.26924181,0.136253164,-1.026685019,0.111809123
0.658333333,1.95527482,0.171598613,7.385284424,0.147095958,-0.988704946,0.135097926
0.666666667,1.880145907,0.394838095,7.655491352,0.160178121,-0.962304564,0.15054813
0.675,1.852605581,0.707446098,7.990540028,0.1748303,-0.955023282,0.152384163
0.683333333,1.864812613,0.808023453,8.187645912,0.183235353,-0.952150996,0.15418982
0.691666667,1.921980619,0.565499842,8.37612915,0.19936865,-0.953745631,0.145081975
0.7,2.025426626,0.287458092,8.457627296,0.229590402,-0.957746897,0.133830969
0.708333333,2.0433743,-0.207911551,8.518522263,0.263579495,-0.972228768,0.114853541
0.716666667,2.076033115,-0.60500598,8.780613899,0.300721687,-0.98260957,0.096729548
0.725,2.206670523,-0.815414786,8.88646698,0.339961834,-0.972658069,0.088545762
0.733333333,2.320222616,-0.713453412,9.180800438,0.353698852,-0.935252374,0.094192487
0.741666667,2.343302727,-0.444283634,9.460220337,0.34914681,-0.886562998,0.106213739
0.75,2.59375906,0.198119715,10.08848381,0.342880925,-0.849404377,0.109620288
0.758333333,2.886912107,0.87006402,10.63483429,0.321881401,-0.818555185,0.118753116
0.766666667,3.02149725,1.124068618,10.92309856,0.29180539,-0.793691314,0.127675846
0.775,3.017165661,1.134257197,11.18109798,0.265048694,-0.799397802,0.135701332
0.783333333,2.888862133,0.594417036,11.75470638,0.261250177,-0.845563566,0.14024659
0.791666667,2.808805943,-0.183263823,12.2909441,0.294714062,-0.920203183,0.129091308
0.8,2.940556049,-0.64113009,12.72045422,0.357648719,-0.997535123,0.117493
0.808333333,3.105383635,-0.821903229,12.92363834,0.407265208,-1.063306613,0.116538148
0.816666667,3.131746531,-0.854470789,13.02640724,0.434794504,-1.093202261,0.111258906
0.825,3.344797134,-0.622156978,13.25215244,0.442714978,-1.082704679,0.109699134
0.833333333,3.648144245,-0.253222853,13.46456909,0.414196784,-1.03547658,0.110123808
0.841666667,3.798419476,0.098097891,13.63214111,0.372876741,-0.978106497,0.120425664
0.85,3.785844088,0.346889555,13.90752125,0.337237886,-0.937949557,0.139314101
0.858333333,3.593002796,0.524752736,14.28419209,0.320847095,-0.931676547,0.163962439
0.866666667,3.286663771,0.661364198,14.49835682,0.320936078,-0.962077996,0.190122271
0.875,3.021225452,0.645167828,14.87567139,0.356637983,-1.01778853,0.221568128
0.883333333,2.86662674,0.454445243,15.1568718,0.411573637,-1.080486399,0.252556355
0.891666667,2.766405106,0.303961813,15.1778841,0.468597142,-1.117089018,0.269785226
0.9,2.991342783,0.420732677,15.29349041,0.527562625,-1.122492173,0.267174246
0.908333333,3.467675686,0.809330702,15.58415985,0.573701358,-1.084170083,0.2613853
0.916666667,3.861600161,1.177390456,15.91401577,0.566798777,-0.999398803,0.262196781
0.925,4.068162441,1.593008757,16.2145977,0.510262564,-0.894835775,0.273698458
0.933333333,4.100672245,1.954027534,16.62467003,0.425077128,-0.79180726,0.28847311
0.941666667,3.985105991,2.152784586,16.84103203,0.331650275,-0.704469492,0.295098755
0.95,3.66433382,2.201507807,16.84976196,0.239469548,-0.635750082,0.290762663
0.958333333,3.345958233,1.962719202,16.82003593,0.165935442,-0.579304848,0.270792733
0.966666667,3.379900932,1.539601445,16.65319252,0.130717026,-0.536047889,0.235683781
0.975,3.666419268,1.378544569,16.19147682,0.123906108,-0.471072517,0.195693904
0.983333333,4.004813194,1.321547508,15.66653061,0.115508412,-0.359701384,0.15278457
0.991666667,4.200082302,1.240542412,15.26060295,0.10415281,-0.231897931,0.110606015
1,4.080401421,1.218330622,14.84299469,0.094335957,-0.104738664,0.07191269
1.008333333,3.697948933,1.221823812,14.4461813,0.082459548,0.015617563,0.029392152
1.016666667,3.337976933,1.297201872,14.12090588,0.062136533,0.108908533,-0.007476511
1.025,3.146134138,1.506255269,13.88927174,0.043170769,0.173799158,-0.034173165
1.033333333,3.039108753,1.775824189,13.74793816,0.008328817,0.21036178,-0.04684487
1.041666667,2.952702761,1.836008906,13.61309338,-0.037279728,0.229015076,-0.050408326
1.05,2.868399382,1.647626281,13.35907459,-0.071599985,0.226709211,-0.044920316
1.058333333,2.701135874,1.309316635,13.18042755,-0.098941495,0.214878584,-0.039837095
1.066666667,2.546462059,0.908959508,12.8752327,-0.109028359,0.192453985,-0.04302995
1.075,2.408965588,0.573652565,12.59148979,-0.108318426,0.163768828,-0.057367823
1.083333333,2.433916092,0.423887074,12.33669281,-0.093551831,0.134580782,-0.077790985
1.091666667,2.535926819,0.403529316,12.10110378,-0.083882509,0.112062698,-0.094510294
1.1,2.678420782,0.435647845,11.7547884,-0.086523715,0.099226935,-0.107579899
1.108333333,2.822425842,0.451566786,11.40106869,-0.088953875,0.101735342,-0.11083935
1.116666667,2.879999876,0.48961255,11.14404964,-0.082313815,0.107190278,-0.104442021
1.125,2.922313452,0.48435539,10.94990349,-0.067771183,0.11303729,-0.08788767
1.133333333,2.901004314,0.432936072,10.86543465,-0.037567857,0.109019645,-0.068412714
1.141666667,2.827676773,0.488385588,10.87693501,0.002514001,0.094640856,-0.050478071
1.15,2.72295785,0.530672252,10.83802032,0.044351211,0.075990031,-0.034828317
1.158333333,2.677178621,0.551044285,10.81163502,0.076068702,0.05636441,-0.029204389
1.166666667,2.603250265,0.703073919,10.79100895,0.088870501,0.040313876,-0.017939555
1.175,2.50267005,0.735958576,10.71955013,0.093367407,0.022724583,-0.00907897
1.183333333,2.400723696,0.760899782,10.75962162,0.096301636,0.005642029,-0.003199109
1.191666667,2.386245251,0.799894691,10.71192646,0.092962165,-0.003753455,0.00155552
1.2,2.423001289,0.907815158,10.65478134,0.083852789,-0.014220525,0.010164638
1.208333333,2.435959816,0.947506905,10.51336861,0.076378961,-0.022512458,0.017979569
1.216666667,2.478286982,1.016796589,10.50219917,0.066596999,-0.023910393,0.0228587
1.225,2.536957741,1.076886296,10.46553421,0.043137463,-0.023381085,0.032595513
1.233333333,2.524195671,0.91545862,10.31965065,0.024789968,-0.01665741,0.033684529
1.241666667,2.473397255,0.757746935,10.28823853,0.027632774,0.002222299,0.02667966
1.25,2.305291653,0.663375616,10.29082966,0.030291402,0.016392532,0.014213148
1.258333333,2.094435692,0.628297925,10.40694237,0.038378586,0.017512398,0.004834875
1.266666667,1.863831401,0.699799776,10.5567522,0.050145234,0.007016716,-0.004893439
1.275,1.808477759,0.887436688,10.67529011,0.057185871,-0.017355036,-0.009675563
1.283333333,1.893883705,1.060240746,10.68951797,0.056140218,-0.047696058,-0.013783083
1.291666667,2.130106688,1.162123084,10.63358974,0.051380662,-0.071534463,-0.012889199
1.3,2.435906172,1.235830426,10.56591606,0.044280571,-0.077419025,-0.010207331
1.308333333,2.786376238,1.272196889,10.49475002,0.031208303,-0.069220975,-0.011527032
1.316666667,3.032569408,1.231308222,10.33790112,0.010949664,-0.037980934,-0.004742112
1.325,3.076981306,1.025645971,10.27622318,-0.013839635,0.002769492,-0.001061527
1.333333333,3.028115511,0.80135721,10.21395016,-0.028659433,0.041032738,-0.001739706
1.341666667,2.915195227,0.70735997,10.09438419,-0.037060899,0.07496493,-0.003445659
1.35,2.760147572,0.590044498,9.973130226,-0.038917955,0.10013668,-0.010314625
1.358333333,2.637979269,0.638488293,9.86263752,-0.029143142,0.117476963,-0.022448082
1.366666667,2.478227139,0.835810602,9.870219231,-0.025008805,0.131216261,-0.025095982
1.375,2.266113043,0.863226116,9.777738571,-0.025540795,0.137731152,-0.022726152
1.383333333,2.072766066,0.789977074,9.757846832,-0.027363429,0.131820232,-0.020168564
1.391666667,2.02966094,0.70303607,9.750796318,-0.021579234,0.116520039,-0.0175723
1.4,2.01636672,0.64720881,9.711083412,-0.016321002,0.101428887,-0.012016331
1.408333333,2.110807657,0.570116282,9.593379021,-0.003886229,0.091305379,-0.011113284
1.416666667,2.169032097,0.408833772,9.515967369,0.002065607,0.087373547,-0.013902446
